key_resp_start.keys,key_resp_start.rt,key_resp_stop.keys,key_resp_stop.rt,feedback_range,hit,stimulus_range,trials.thisRepN,trials.thisTrialN,trials.thisN,trials.thisIndex,trials.ran,stimulus_duration,onset,feedback,feedback_range_fromfile,participant,session,date,expName,psychopyVersion,OS,frameRate
space,1.247615,space,0.971805,0.3,TRUE,Training,0,0,0,0,1,1,0.3,True,0.3,T02,r1,2021-04-26_18h44.07.777,subsecond_timing_v2,2021.1.2,Linux x86_64,60.0060006
space,0.73315,space,0.740245,0.3,TRUE,Training,0,1,1,1,1,0.75,0.1,True,0.3,T02,r1,2021-04-26_18h44.07.777,subsecond_timing_v2,2021.1.2,Linux x86_64,60.0060006
space,0.583855,space,0.534145,0.3,TRUE,Training,0,2,2,2,1,0.5,0.1,True,0.3,T02,r1,2021-04-26_18h44.07.777,subsecond_timing_v2,2021.1.2,Linux x86_64,60.0060006
space,0.70207,space,0.6343,0.3,TRUE,Training,0,3,3,3,1,0.5,0.2,True,0.3,T02,r1,2021-04-26_18h44.07.777,subsecond_timing_v2,2021.1.2,Linux x86_64,60.0060006
space,0.66504,space,0.755005,0.3,TRUE,Training,0,4,4,4,1,0.75,0.2,True,0.3,T02,r1,2021-04-26_18h44.07.777,subsecond_timing_v2,2021.1.2,Linux x86_64,60.0060006
space,0.71935,space,0.897355,0.3,TRUE,Training,0,5,5,5,1,1,0.3,True,0.3,T02,r1,2021-04-26_18h44.07.777,subsecond_timing_v2,2021.1.2,Linux x86_64,60.0060006
space,0.490285,space,0.73418,,,ms_small,0,6,6,6,1,0.706,0.2,False,None,T02,r1,2021-04-26_18h44.07.777,subsecond_timing_v2,2021.1.2,Linux x86_64,60.0060006
space,0.62169,space,0.85114,,,ms_small,0,7,7,7,1,0.812,0.3,False,None,T02,r1,2021-04-26_18h44.07.777,subsecond_timing_v2,2021.1.2,Linux x86_64,60.0060006
space,0.597385,space,0.73471,,,ms_small,0,8,8,8,1,0.847,0.1,False,None,T02,r1,2021-04-26_18h44.07.777,subsecond_timing_v2,2021.1.2,Linux x86_64,60.0060006
space,0.607735,space,0.67649,,,ms_small,0,9,9,9,1,0.67,0.3,False,None,T02,r1,2021-04-26_18h44.07.777,subsecond_timing_v2,2021.1.2,Linux x86_64,60.0060006
space,0.56916,space,0.70638,,,ms_small,0,10,10,10,1,0.988,0.1,False,None,T02,r1,2021-04-26_18h44.07.777,subsecond_timing_v2,2021.1.2,Linux x86_64,60.0060006
space,0.635415,space,0.83535,,,ms_small,0,11,11,11,1,0.953,0.1,False,None,T02,r1,2021-04-26_18h44.07.777,subsecond_timing_v2,2021.1.2,Linux x86_64,60.0060006
space,0.5978,space,0.98519,,,ms_small,0,12,12,12,1,0.882,0.3,False,None,T02,r1,2021-04-26_18h44.07.777,subsecond_timing_v2,2021.1.2,Linux x86_64,60.0060006
space,0.48039,space,0.888275,,,ms_small,0,13,13,13,1,0.918,0.1,False,None,T02,r1,2021-04-26_18h44.07.777,subsecond_timing_v2,2021.1.2,Linux x86_64,60.0060006
space,0.852465,space,0.96657,,,ms_small,0,14,14,14,1,0.776,0.2,False,None,T02,r1,2021-04-26_18h44.07.777,subsecond_timing_v2,2021.1.2,Linux x86_64,60.0060006
space,0.48663,space,0.8885,,,ms_small,0,15,15,15,1,0.741,0.3,False,None,T02,r1,2021-04-26_18h44.07.777,subsecond_timing_v2,2021.1.2,Linux x86_64,60.0060006
space,0.812885,space,0.953405,,,ms_small,0,16,16,16,1,1.024,0.3,False,None,T02,r1,2021-04-26_18h44.07.777,subsecond_timing_v2,2021.1.2,Linux x86_64,60.0060006
space,0.812885,space,0.750975,,,ms_small,0,17,17,17,1,0.67,0.1,False,None,T02,r1,2021-04-26_18h44.07.777,subsecond_timing_v2,2021.1.2,Linux x86_64,60.0060006
space,0.80098,space,0.735845,,,ms_small,0,18,18,18,1,0.812,0.3,False,None,T02,r1,2021-04-26_18h44.07.777,subsecond_timing_v2,2021.1.2,Linux x86_64,60.0060006
space,0.777495,space,0.7681,,,ms_small,0,19,19,19,1,0.953,0.3,False,None,T02,r1,2021-04-26_18h44.07.777,subsecond_timing_v2,2021.1.2,Linux x86_64,60.0060006
space,0.746955,space,0.80147,,,ms_small,0,20,20,20,1,0.776,0.1,False,None,T02,r1,2021-04-26_18h44.07.777,subsecond_timing_v2,2021.1.2,Linux x86_64,60.0060006
space,0.657475,space,0.740785,,,ms_small,0,21,21,21,1,0.741,0.2,False,None,T02,r1,2021-04-26_18h44.07.777,subsecond_timing_v2,2021.1.2,Linux x86_64,60.0060006
space,0.68475,space,0.85581,,,ms_small,0,22,22,22,1,0.847,0.2,False,None,T02,r1,2021-04-26_18h44.07.777,subsecond_timing_v2,2021.1.2,Linux x86_64,60.0060006
space,0.73504,space,0.735265,,,ms_small,0,23,23,23,1,1.024,0.1,False,None,T02,r1,2021-04-26_18h44.07.777,subsecond_timing_v2,2021.1.2,Linux x86_64,60.0060006
space,0.84452,space,0.85994,,,ms_small,0,24,24,24,1,0.882,0.3,False,None,T02,r1,2021-04-26_18h44.07.777,subsecond_timing_v2,2021.1.2,Linux x86_64,60.0060006
space,0.691235,space,0.93922,,,ms_small,0,25,25,25,1,0.988,0.1,False,None,T02,r1,2021-04-26_18h44.07.777,subsecond_timing_v2,2021.1.2,Linux x86_64,60.0060006
space,0.68651,space,0.904195,,,ms_small,0,26,26,26,1,0.706,0.2,False,None,T02,r1,2021-04-26_18h44.07.777,subsecond_timing_v2,2021.1.2,Linux x86_64,60.0060006
space,0.85216,space,0.984105,,,ms_small,0,27,27,27,1,0.918,0.3,False,None,T02,r1,2021-04-26_18h44.07.777,subsecond_timing_v2,2021.1.2,Linux x86_64,60.0060006
space,0.80208,space,1.003875,,,ms_small,0,28,28,28,1,0.706,0.1,False,None,T02,r1,2021-04-26_18h44.07.777,subsecond_timing_v2,2021.1.2,Linux x86_64,60.0060006
space,0.886685,space,0.92453,,,ms_small,0,29,29,29,1,0.918,0.1,False,None,T02,r1,2021-04-26_18h44.07.777,subsecond_timing_v2,2021.1.2,Linux x86_64,60.0060006
space,0.84303,space,0.602265,,,ms_small,0,30,30,30,1,0.67,0.2,False,None,T02,r1,2021-04-26_18h44.07.777,subsecond_timing_v2,2021.1.2,Linux x86_64,60.0060006
space,0.62438,space,0.852295,,,ms_small,0,31,31,31,1,0.988,0.1,False,None,T02,r1,2021-04-26_18h44.07.777,subsecond_timing_v2,2021.1.2,Linux x86_64,60.0060006
space,0.77054,space,0.96838,,,ms_small,0,32,32,32,1,0.953,0.2,False,None,T02,r1,2021-04-26_18h44.07.777,subsecond_timing_v2,2021.1.2,Linux x86_64,60.0060006
space,0.822905,space,0.79546,,,ms_small,0,33,33,33,1,0.776,0.1,False,None,T02,r1,2021-04-26_18h44.07.777,subsecond_timing_v2,2021.1.2,Linux x86_64,60.0060006
space,0.71883,space,0.89003,,,ms_small,0,34,34,34,1,0.847,0.1,False,None,T02,r1,2021-04-26_18h44.07.777,subsecond_timing_v2,2021.1.2,Linux x86_64,60.0060006
space,0.640925,space,0.922425,,,ms_small,0,35,35,35,1,0.741,0.2,False,None,T02,r1,2021-04-26_18h44.07.777,subsecond_timing_v2,2021.1.2,Linux x86_64,60.0060006
space,0.685365,space,0.792905,,,ms_small,0,36,36,36,1,0.812,0.1,False,None,T02,r1,2021-04-26_18h44.07.777,subsecond_timing_v2,2021.1.2,Linux x86_64,60.0060006
space,0.718795,space,0.800815,,,ms_small,0,37,37,37,1,0.882,0.1,False,None,T02,r1,2021-04-26_18h44.07.777,subsecond_timing_v2,2021.1.2,Linux x86_64,60.0060006
space,0.621775,space,0.904985,,,ms_small,0,38,38,38,1,1.024,0.3,False,None,T02,r1,2021-04-26_18h44.07.777,subsecond_timing_v2,2021.1.2,Linux x86_64,60.0060006
space,0.775365,space,1.036135,,,ms_small,0,39,39,39,1,0.847,0.2,False,None,T02,r1,2021-04-26_18h44.07.777,subsecond_timing_v2,2021.1.2,Linux x86_64,60.0060006
space,0.624495,space,0.902815,,,ms_small,0,40,40,40,1,0.918,0.2,False,None,T02,r1,2021-04-26_18h44.07.777,subsecond_timing_v2,2021.1.2,Linux x86_64,60.0060006
space,0.722075,space,0.839975,,,ms_small,0,41,41,41,1,0.953,0.1,False,None,T02,r1,2021-04-26_18h44.07.777,subsecond_timing_v2,2021.1.2,Linux x86_64,60.0060006
space,0.6874,space,0.91966,,,ms_small,0,42,42,42,1,0.882,0.3,False,None,T02,r1,2021-04-26_18h44.07.777,subsecond_timing_v2,2021.1.2,Linux x86_64,60.0060006
space,0.76957,space,0.768785,,,ms_small,0,43,43,43,1,0.741,0.2,False,None,T02,r1,2021-04-26_18h44.07.777,subsecond_timing_v2,2021.1.2,Linux x86_64,60.0060006
space,0.94858,space,0.93431,,,ms_small,0,44,44,44,1,0.67,0.3,False,None,T02,r1,2021-04-26_18h44.07.777,subsecond_timing_v2,2021.1.2,Linux x86_64,60.0060006
space,0.83943,space,1.053885,,,ms_small,0,45,45,45,1,0.812,0.2,False,None,T02,r1,2021-04-26_18h44.07.777,subsecond_timing_v2,2021.1.2,Linux x86_64,60.0060006
space,0.76945,space,1.023085,,,ms_small,0,46,46,46,1,1.024,0.3,False,None,T02,r1,2021-04-26_18h44.07.777,subsecond_timing_v2,2021.1.2,Linux x86_64,60.0060006
space,0.688665,space,0.669635,,,ms_small,0,47,47,47,1,0.706,0.3,False,None,T02,r1,2021-04-26_18h44.07.777,subsecond_timing_v2,2021.1.2,Linux x86_64,60.0060006
space,0.71543,space,0.909535,,,ms_small,0,48,48,48,1,0.988,0.2,False,None,T02,r1,2021-04-26_18h44.07.777,subsecond_timing_v2,2021.1.2,Linux x86_64,60.0060006
space,0.6258,space,0.72593,,,ms_small,0,49,49,49,1,0.776,0.1,False,None,T02,r1,2021-04-26_18h44.07.777,subsecond_timing_v2,2021.1.2,Linux x86_64,60.0060006
space,0.601875,space,0.76735,,,ms_small,0,50,50,50,1,0.988,0.1,False,None,T02,r1,2021-04-26_18h44.07.777,subsecond_timing_v2,2021.1.2,Linux x86_64,60.0060006
space,0.71816,space,0.670165,,,ms_small,0,51,51,51,1,0.706,0.3,False,None,T02,r1,2021-04-26_18h44.07.777,subsecond_timing_v2,2021.1.2,Linux x86_64,60.0060006
space,0.660695,space,0.70233,,,ms_small,0,52,52,52,1,0.953,0.2,False,None,T02,r1,2021-04-26_18h44.07.777,subsecond_timing_v2,2021.1.2,Linux x86_64,60.0060006
space,0.65337,space,0.62633,,,ms_small,0,53,53,53,1,0.847,0.2,False,None,T02,r1,2021-04-26_18h44.07.777,subsecond_timing_v2,2021.1.2,Linux x86_64,60.0060006
space,0.63915,space,0.879705,,,ms_small,0,54,54,54,1,0.918,0.3,False,None,T02,r1,2021-04-26_18h44.07.777,subsecond_timing_v2,2021.1.2,Linux x86_64,60.0060006
space,0.740125,space,0.818475,,,ms_small,0,55,55,55,1,0.741,0.1,False,None,T02,r1,2021-04-26_18h44.07.777,subsecond_timing_v2,2021.1.2,Linux x86_64,60.0060006
space,0.59738,space,0.62982,,,ms_small,0,56,56,56,1,0.67,0.1,False,None,T02,r1,2021-04-26_18h44.07.777,subsecond_timing_v2,2021.1.2,Linux x86_64,60.0060006
space,0.602,space,0.65416,,,ms_small,0,57,57,57,1,0.776,0.2,False,None,T02,r1,2021-04-26_18h44.07.777,subsecond_timing_v2,2021.1.2,Linux x86_64,60.0060006
space,0.68856,space,0.82609,,,ms_small,0,58,58,58,1,0.882,0.1,False,None,T02,r1,2021-04-26_18h44.07.777,subsecond_timing_v2,2021.1.2,Linux x86_64,60.0060006
space,0.70759,space,0.90551,,,ms_small,0,59,59,59,1,0.812,0.2,False,None,T02,r1,2021-04-26_18h44.07.777,subsecond_timing_v2,2021.1.2,Linux x86_64,60.0060006
space,0.85683,space,0.92552,,,ms_small,0,60,60,60,1,1.024,0.2,False,None,T02,r1,2021-04-26_18h44.07.777,subsecond_timing_v2,2021.1.2,Linux x86_64,60.0060006
space,0.6173,space,0.88632,,,ms_small,0,61,61,61,1,0.847,0.3,False,None,T02,r1,2021-04-26_18h44.07.777,subsecond_timing_v2,2021.1.2,Linux x86_64,60.0060006
space,0.784075,space,0.77372,,,ms_small,0,62,62,62,1,0.67,0.1,False,None,T02,r1,2021-04-26_18h44.07.777,subsecond_timing_v2,2021.1.2,Linux x86_64,60.0060006
space,0.62265,space,0.99792,,,ms_small,0,63,63,63,1,0.988,0.3,False,None,T02,r1,2021-04-26_18h44.07.777,subsecond_timing_v2,2021.1.2,Linux x86_64,60.0060006
space,0.70542,space,0.98072,,,ms_small,0,64,64,64,1,0.812,0.1,False,None,T02,r1,2021-04-26_18h44.07.777,subsecond_timing_v2,2021.1.2,Linux x86_64,60.0060006
space,0.50104,space,1.00167,,,ms_small,0,65,65,65,1,0.882,0.3,False,None,T02,r1,2021-04-26_18h44.07.777,subsecond_timing_v2,2021.1.2,Linux x86_64,60.0060006
space,0.48972,space,0.82165,,,ms_small,0,66,66,66,1,0.918,0.1,False,None,T02,r1,2021-04-26_18h44.07.777,subsecond_timing_v2,2021.1.2,Linux x86_64,60.0060006
space,0.524205,space,0.810515,,,ms_small,0,67,67,67,1,1.024,0.1,False,None,T02,r1,2021-04-26_18h44.07.777,subsecond_timing_v2,2021.1.2,Linux x86_64,60.0060006
space,0.670345,space,0.801605,,,ms_small,0,68,68,68,1,0.776,0.2,False,None,T02,r1,2021-04-26_18h44.07.777,subsecond_timing_v2,2021.1.2,Linux x86_64,60.0060006
space,0.560075,space,0.65624,,,ms_small,0,69,69,69,1,0.953,0.1,False,None,T02,r1,2021-04-26_18h44.07.777,subsecond_timing_v2,2021.1.2,Linux x86_64,60.0060006
space,0.64243,space,0.686185,,,ms_small,0,70,70,70,1,0.706,0.1,False,None,T02,r1,2021-04-26_18h44.07.777,subsecond_timing_v2,2021.1.2,Linux x86_64,60.0060006
space,0.724465,space,0.856835,,,ms_small,0,71,71,71,1,0.741,0.3,False,None,T02,r1,2021-04-26_18h44.07.777,subsecond_timing_v2,2021.1.2,Linux x86_64,60.0060006
space,0.89145,space,0.866905,,,ms_small,0,72,72,72,1,0.882,0.2,False,None,T02,r1,2021-04-26_18h44.07.777,subsecond_timing_v2,2021.1.2,Linux x86_64,60.0060006
space,0.68181,space,1.001855,,,ms_small,0,73,73,73,1,0.918,0.3,False,None,T02,r1,2021-04-26_18h44.07.777,subsecond_timing_v2,2021.1.2,Linux x86_64,60.0060006
space,0.970555,space,1.018195,,,ms_small,0,74,74,74,1,0.988,0.2,False,None,T02,r1,2021-04-26_18h44.07.777,subsecond_timing_v2,2021.1.2,Linux x86_64,60.0060006
space,1.004975,space,0.84549,,,ms_small,0,75,75,75,1,0.67,0.1,False,None,T02,r1,2021-04-26_18h44.07.777,subsecond_timing_v2,2021.1.2,Linux x86_64,60.0060006
space,0.70707,space,0.766925,,,ms_small,0,76,76,76,1,0.776,0.3,False,None,T02,r1,2021-04-26_18h44.07.777,subsecond_timing_v2,2021.1.2,Linux x86_64,60.0060006
space,0.586125,space,0.93756,,,ms_small,0,77,77,77,1,0.847,0.2,False,None,T02,r1,2021-04-26_18h44.07.777,subsecond_timing_v2,2021.1.2,Linux x86_64,60.0060006
space,0.70342,space,0.995505,,,ms_small,0,78,78,78,1,1.024,0.2,False,None,T02,r1,2021-04-26_18h44.07.777,subsecond_timing_v2,2021.1.2,Linux x86_64,60.0060006
space,0.864655,space,0.798415,,,ms_small,0,79,79,79,1,0.812,0.3,False,None,T02,r1,2021-04-26_18h44.07.777,subsecond_timing_v2,2021.1.2,Linux x86_64,60.0060006
space,0.903525,space,0.98551,,,ms_small,0,80,80,80,1,0.953,0.1,False,None,T02,r1,2021-04-26_18h44.07.777,subsecond_timing_v2,2021.1.2,Linux x86_64,60.0060006
space,0.853865,space,0.68579,,,ms_small,0,81,81,81,1,0.706,0.2,False,None,T02,r1,2021-04-26_18h44.07.777,subsecond_timing_v2,2021.1.2,Linux x86_64,60.0060006
space,0.836075,space,0.820665,,,ms_small,0,82,82,82,1,0.741,0.3,False,None,T02,r1,2021-04-26_18h44.07.777,subsecond_timing_v2,2021.1.2,Linux x86_64,60.0060006
space,0.834095,space,0.84443,,,ms_small,0,83,83,83,1,0.706,0.1,False,None,T02,r1,2021-04-26_18h44.07.777,subsecond_timing_v2,2021.1.2,Linux x86_64,60.0060006
space,0.77736,space,0.9284,,,ms_small,0,84,84,84,1,0.812,0.2,False,None,T02,r1,2021-04-26_18h44.07.777,subsecond_timing_v2,2021.1.2,Linux x86_64,60.0060006
space,0.78683,space,0.921325,,,ms_small,0,85,85,85,1,0.882,0.2,False,None,T02,r1,2021-04-26_18h44.07.777,subsecond_timing_v2,2021.1.2,Linux x86_64,60.0060006
space,1.02047,space,0.868505,,,ms_small,0,86,86,86,1,0.776,0.1,False,None,T02,r1,2021-04-26_18h44.07.777,subsecond_timing_v2,2021.1.2,Linux x86_64,60.0060006
space,0.71438,space,0.979815,,,ms_small,0,87,87,87,1,0.988,0.3,False,None,T02,r1,2021-04-26_18h44.07.777,subsecond_timing_v2,2021.1.2,Linux x86_64,60.0060006
space,0.75737,space,0.61773,,,ms_small,0,88,88,88,1,0.67,0.2,False,None,T02,r1,2021-04-26_18h44.07.777,subsecond_timing_v2,2021.1.2,Linux x86_64,60.0060006
space,0.79058,space,0.942205,,,ms_small,0,89,89,89,1,0.741,0.3,False,None,T02,r1,2021-04-26_18h44.07.777,subsecond_timing_v2,2021.1.2,Linux x86_64,60.0060006
space,0.735105,space,1.00373,,,ms_small,0,90,90,90,1,0.918,0.1,False,None,T02,r1,2021-04-26_18h44.07.777,subsecond_timing_v2,2021.1.2,Linux x86_64,60.0060006
space,0.76523,space,0.880945,,,ms_small,0,91,91,91,1,0.847,0.3,False,None,T02,r1,2021-04-26_18h44.07.777,subsecond_timing_v2,2021.1.2,Linux x86_64,60.0060006
space,1.08746,space,0.657045,,,ms_small,0,92,92,92,1,0.953,0.2,False,None,T02,r1,2021-04-26_18h44.07.777,subsecond_timing_v2,2021.1.2,Linux x86_64,60.0060006
space,1.285395,space,0.68386,,,ms_small,0,93,93,93,1,1.024,0.2,False,None,T02,r1,2021-04-26_18h44.07.777,subsecond_timing_v2,2021.1.2,Linux x86_64,60.0060006
space,0.701725,space,0.91666,,,ms_small,0,94,94,94,1,0.882,0.1,False,None,T02,r1,2021-04-26_18h44.07.777,subsecond_timing_v2,2021.1.2,Linux x86_64,60.0060006
space,0.824575,space,0.725265,,,ms_small,0,95,95,95,1,0.67,0.2,False,None,T02,r1,2021-04-26_18h44.07.777,subsecond_timing_v2,2021.1.2,Linux x86_64,60.0060006
space,0.97432,space,0.7919,,,ms_small,0,96,96,96,1,0.918,0.3,False,None,T02,r1,2021-04-26_18h44.07.777,subsecond_timing_v2,2021.1.2,Linux x86_64,60.0060006
space,1.036095,space,0.75139,,,ms_small,0,97,97,97,1,0.706,0.2,False,None,T02,r1,2021-04-26_18h44.07.777,subsecond_timing_v2,2021.1.2,Linux x86_64,60.0060006
space,0.69225,space,1.16087,,,ms_small,0,98,98,98,1,0.988,0.1,False,None,T02,r1,2021-04-26_18h44.07.777,subsecond_timing_v2,2021.1.2,Linux x86_64,60.0060006
space,0.68703,space,0.75441,,,ms_small,0,99,99,99,1,0.741,0.3,False,None,T02,r1,2021-04-26_18h44.07.777,subsecond_timing_v2,2021.1.2,Linux x86_64,60.0060006
space,0.690995,space,0.801755,,,ms_small,0,100,100,100,1,1.024,0.2,False,None,T02,r1,2021-04-26_18h44.07.777,subsecond_timing_v2,2021.1.2,Linux x86_64,60.0060006
space,0.921765,space,0.72647,,,ms_small,0,101,101,101,1,0.776,0.2,False,None,T02,r1,2021-04-26_18h44.07.777,subsecond_timing_v2,2021.1.2,Linux x86_64,60.0060006
space,0.84595,space,0.780935,,,ms_small,0,102,102,102,1,0.812,0.2,False,None,T02,r1,2021-04-26_18h44.07.777,subsecond_timing_v2,2021.1.2,Linux x86_64,60.0060006
space,0.690335,space,0.872035,,,ms_small,0,103,103,103,1,0.953,0.2,False,None,T02,r1,2021-04-26_18h44.07.777,subsecond_timing_v2,2021.1.2,Linux x86_64,60.0060006
space,0.722795,space,1.017495,,,ms_small,0,104,104,104,1,0.847,0.1,False,None,T02,r1,2021-04-26_18h44.07.777,subsecond_timing_v2,2021.1.2,Linux x86_64,60.0060006
space,0.74136,space,0.886885,,,ms_small,0,105,105,105,1,0.706,0.2,False,None,T02,r1,2021-04-26_18h44.07.777,subsecond_timing_v2,2021.1.2,Linux x86_64,60.0060006
space,0.450285,space,1.06487,,,ms_small,0,106,106,106,1,0.741,0.1,False,None,T02,r1,2021-04-26_18h44.07.777,subsecond_timing_v2,2021.1.2,Linux x86_64,60.0060006
space,0.674355,space,0.883225,,,ms_small,0,107,107,107,1,0.67,0.1,False,None,T02,r1,2021-04-26_18h44.07.777,subsecond_timing_v2,2021.1.2,Linux x86_64,60.0060006
space,0.720915,space,0.79883,,,ms_small,0,108,108,108,1,0.847,0.1,False,None,T02,r1,2021-04-26_18h44.07.777,subsecond_timing_v2,2021.1.2,Linux x86_64,60.0060006
space,0.841625,space,0.78745,,,ms_small,0,109,109,109,1,0.812,0.2,False,None,T02,r1,2021-04-26_18h44.07.777,subsecond_timing_v2,2021.1.2,Linux x86_64,60.0060006
space,0.328255,space,1.005585,,,ms_small,0,110,110,110,1,0.776,0.3,False,None,T02,r1,2021-04-26_18h44.07.777,subsecond_timing_v2,2021.1.2,Linux x86_64,60.0060006
space,0.842685,space,1.10904,,,ms_small,0,111,111,111,1,0.988,0.3,False,None,T02,r1,2021-04-26_18h44.07.777,subsecond_timing_v2,2021.1.2,Linux x86_64,60.0060006
space,0.70767,space,0.95013,,,ms_small,0,112,112,112,1,0.918,0.1,False,None,T02,r1,2021-04-26_18h44.07.777,subsecond_timing_v2,2021.1.2,Linux x86_64,60.0060006
space,0.79974,space,0.886095,,,ms_small,0,113,113,113,1,0.882,0.1,False,None,T02,r1,2021-04-26_18h44.07.777,subsecond_timing_v2,2021.1.2,Linux x86_64,60.0060006
space,0.82092,space,0.969,,,ms_small,0,114,114,114,1,1.024,0.2,False,None,T02,r1,2021-04-26_18h44.07.777,subsecond_timing_v2,2021.1.2,Linux x86_64,60.0060006
space,0.872415,space,1.00207,,,ms_small,0,115,115,115,1,0.953,0.2,False,None,T02,r1,2021-04-26_18h44.07.777,subsecond_timing_v2,2021.1.2,Linux x86_64,60.0060006
space,0.82584,space,0.91659,,,ms_small,0,116,116,116,1,0.847,0.3,False,None,T02,r1,2021-04-26_18h44.07.777,subsecond_timing_v2,2021.1.2,Linux x86_64,60.0060006
space,0.99219,space,0.932645,,,ms_small,0,117,117,117,1,0.882,0.2,False,None,T02,r1,2021-04-26_18h44.07.777,subsecond_timing_v2,2021.1.2,Linux x86_64,60.0060006
space,1.0699,space,0.95073,,,ms_small,0,118,118,118,1,1.024,0.1,False,None,T02,r1,2021-04-26_18h44.07.777,subsecond_timing_v2,2021.1.2,Linux x86_64,60.0060006
space,0.939265,space,0.633155,,,ms_small,0,119,119,119,1,0.706,0.2,False,None,T02,r1,2021-04-26_18h44.07.777,subsecond_timing_v2,2021.1.2,Linux x86_64,60.0060006
space,0.65088,space,0.971505,,,ms_small,0,120,120,120,1,0.918,0.1,False,None,T02,r1,2021-04-26_18h44.07.777,subsecond_timing_v2,2021.1.2,Linux x86_64,60.0060006
space,0.77027,space,0.81831,,,ms_small,0,121,121,121,1,0.776,0.1,False,None,T02,r1,2021-04-26_18h44.07.777,subsecond_timing_v2,2021.1.2,Linux x86_64,60.0060006
space,0.76764,space,0.9344,,,ms_small,0,122,122,122,1,0.953,0.3,False,None,T02,r1,2021-04-26_18h44.07.777,subsecond_timing_v2,2021.1.2,Linux x86_64,60.0060006
space,0.66888,space,0.600205,,,ms_small,0,123,123,123,1,0.67,0.1,False,None,T02,r1,2021-04-26_18h44.07.777,subsecond_timing_v2,2021.1.2,Linux x86_64,60.0060006
space,0.65671,space,0.81811,,,ms_small,0,124,124,124,1,0.812,0.2,False,None,T02,r1,2021-04-26_18h44.07.777,subsecond_timing_v2,2021.1.2,Linux x86_64,60.0060006
space,1.171305,space,0.869075,,,ms_small,0,125,125,125,1,0.988,0.2,False,None,T02,r1,2021-04-26_18h44.07.777,subsecond_timing_v2,2021.1.2,Linux x86_64,60.0060006
space,0.61831,space,0.82896,,,ms_small,0,126,126,126,1,0.741,0.3,False,None,T02,r1,2021-04-26_18h44.07.777,subsecond_timing_v2,2021.1.2,Linux x86_64,60.0060006
space,0.6513,space,0.68415,,,ms_small,0,127,127,127,1,0.67,0.1,False,None,T02,r1,2021-04-26_18h44.07.777,subsecond_timing_v2,2021.1.2,Linux x86_64,60.0060006
space,0.717245,space,0.82396,,,ms_small,0,128,128,128,1,0.776,0.3,False,None,T02,r1,2021-04-26_18h44.07.777,subsecond_timing_v2,2021.1.2,Linux x86_64,60.0060006
space,0.67803,space,0.685915,,,ms_small,0,129,129,129,1,0.847,0.1,False,None,T02,r1,2021-04-26_18h44.07.777,subsecond_timing_v2,2021.1.2,Linux x86_64,60.0060006
space,0.658655,space,0.60151,,,ms_small,0,130,130,130,1,0.812,0.1,False,None,T02,r1,2021-04-26_18h44.07.777,subsecond_timing_v2,2021.1.2,Linux x86_64,60.0060006
space,0.84091,space,0.56554,,,ms_small,0,131,131,131,1,0.882,0.1,False,None,T02,r1,2021-04-26_18h44.07.777,subsecond_timing_v2,2021.1.2,Linux x86_64,60.0060006
space,0.853805,space,0.83797,,,ms_small,0,132,132,132,1,1.024,0.2,False,None,T02,r1,2021-04-26_18h44.07.777,subsecond_timing_v2,2021.1.2,Linux x86_64,60.0060006
space,0.772925,space,1.08277,,,ms_small,0,133,133,133,1,0.953,0.3,False,None,T02,r1,2021-04-26_18h44.07.777,subsecond_timing_v2,2021.1.2,Linux x86_64,60.0060006
space,0.65407,space,1.02058,,,ms_small,0,134,134,134,1,0.988,0.2,False,None,T02,r1,2021-04-26_18h44.07.777,subsecond_timing_v2,2021.1.2,Linux x86_64,60.0060006
space,0.804515,space,0.74168,,,ms_small,0,135,135,135,1,0.706,0.1,False,None,T02,r1,2021-04-26_18h44.07.777,subsecond_timing_v2,2021.1.2,Linux x86_64,60.0060006
space,0.605155,space,0.87578,,,ms_small,0,136,136,136,1,0.918,0.1,False,None,T02,r1,2021-04-26_18h44.07.777,subsecond_timing_v2,2021.1.2,Linux x86_64,60.0060006
space,1.037255,space,0.616285,,,ms_small,0,137,137,137,1,0.741,0.1,False,None,T02,r1,2021-04-26_18h44.07.777,subsecond_timing_v2,2021.1.2,Linux x86_64,60.0060006
space,0.75237,space,0.934535,,,ms_small,0,138,138,138,1,0.741,0.3,False,None,T02,r1,2021-04-26_18h44.07.777,subsecond_timing_v2,2021.1.2,Linux x86_64,60.0060006
space,0.67884,space,0.93652,,,ms_small,0,139,139,139,1,0.988,0.2,False,None,T02,r1,2021-04-26_18h44.07.777,subsecond_timing_v2,2021.1.2,Linux x86_64,60.0060006
space,0.723905,space,1.00681,,,ms_small,0,140,140,140,1,0.812,0.3,False,None,T02,r1,2021-04-26_18h44.07.777,subsecond_timing_v2,2021.1.2,Linux x86_64,60.0060006
space,0.643865,space,1.16934,,,ms_small,0,141,141,141,1,0.918,0.2,False,None,T02,r1,2021-04-26_18h44.07.777,subsecond_timing_v2,2021.1.2,Linux x86_64,60.0060006
space,0.858105,space,1.10027,,,ms_small,0,142,142,142,1,0.847,0.2,False,None,T02,r1,2021-04-26_18h44.07.777,subsecond_timing_v2,2021.1.2,Linux x86_64,60.0060006
space,0.74408,space,0.99947,,,ms_small,0,143,143,143,1,0.953,0.1,False,None,T02,r1,2021-04-26_18h44.07.777,subsecond_timing_v2,2021.1.2,Linux x86_64,60.0060006
space,0.73543,space,0.78837,,,ms_small,0,144,144,144,1,0.776,0.3,False,None,T02,r1,2021-04-26_18h44.07.777,subsecond_timing_v2,2021.1.2,Linux x86_64,60.0060006
space,0.818405,space,0.78879,,,ms_small,0,145,145,145,1,0.706,0.3,False,None,T02,r1,2021-04-26_18h44.07.777,subsecond_timing_v2,2021.1.2,Linux x86_64,60.0060006
space,0.59447,space,1.203985,,,ms_small,0,146,146,146,1,1.024,0.1,False,None,T02,r1,2021-04-26_18h44.07.777,subsecond_timing_v2,2021.1.2,Linux x86_64,60.0060006
space,0.67051,space,0.969885,,,ms_small,0,147,147,147,1,0.882,0.2,False,None,T02,r1,2021-04-26_18h44.07.777,subsecond_timing_v2,2021.1.2,Linux x86_64,60.0060006
space,0.66982,space,0.881935,,,ms_small,0,148,148,148,1,0.67,0.3,False,None,T02,r1,2021-04-26_18h44.07.777,subsecond_timing_v2,2021.1.2,Linux x86_64,60.0060006
space,0.734895,space,0.634055,,,ms_small,0,149,149,149,1,0.67,0.3,False,None,T02,r1,2021-04-26_18h44.07.777,subsecond_timing_v2,2021.1.2,Linux x86_64,60.0060006
space,0.841065,space,0.507815,,,ms_small,0,150,150,150,1,0.741,0.3,False,None,T02,r1,2021-04-26_18h44.07.777,subsecond_timing_v2,2021.1.2,Linux x86_64,60.0060006
space,0.536185,space,0.835045,,,ms_small,0,151,151,151,1,0.918,0.1,False,None,T02,r1,2021-04-26_18h44.07.777,subsecond_timing_v2,2021.1.2,Linux x86_64,60.0060006
space,0.741415,space,1.05339,,,ms_small,0,152,152,152,1,0.706,0.3,False,None,T02,r1,2021-04-26_18h44.07.777,subsecond_timing_v2,2021.1.2,Linux x86_64,60.0060006
space,0.5034,space,0.984535,,,ms_small,0,153,153,153,1,0.988,0.2,False,None,T02,r1,2021-04-26_18h44.07.777,subsecond_timing_v2,2021.1.2,Linux x86_64,60.0060006
space,0.875105,space,1.043375,,,ms_small,0,154,154,154,1,0.847,0.2,False,None,T02,r1,2021-04-26_18h44.07.777,subsecond_timing_v2,2021.1.2,Linux x86_64,60.0060006
space,0.90386,space,1.050125,,,ms_small,0,155,155,155,1,0.776,0.3,False,None,T02,r1,2021-04-26_18h44.07.777,subsecond_timing_v2,2021.1.2,Linux x86_64,60.0060006
space,0.82048,space,0.87989,,,ms_small,0,156,156,156,1,0.882,0.2,False,None,T02,r1,2021-04-26_18h44.07.777,subsecond_timing_v2,2021.1.2,Linux x86_64,60.0060006
space,0.96592,space,0.797345,,,ms_small,0,157,157,157,1,0.812,0.1,False,None,T02,r1,2021-04-26_18h44.07.777,subsecond_timing_v2,2021.1.2,Linux x86_64,60.0060006
space,0.641685,space,1.09375,,,ms_small,0,158,158,158,1,1.024,0.1,False,None,T02,r1,2021-04-26_18h44.07.777,subsecond_timing_v2,2021.1.2,Linux x86_64,60.0060006
space,1.31796,space,1.02368,,,ms_small,0,159,159,159,1,0.953,0.2,False,None,T02,r1,2021-04-26_18h44.07.777,subsecond_timing_v2,2021.1.2,Linux x86_64,60.0060006
space,0.63991,space,0.93639,,,ms_small,0,160,160,160,1,0.812,0.2,False,None,T02,r1,2021-04-26_18h44.07.777,subsecond_timing_v2,2021.1.2,Linux x86_64,60.0060006
space,0.70096,space,0.678055,,,ms_small,0,161,161,161,1,0.67,0.1,False,None,T02,r1,2021-04-26_18h44.07.777,subsecond_timing_v2,2021.1.2,Linux x86_64,60.0060006
space,0.65449,space,1.00047,,,ms_small,0,162,162,162,1,0.953,0.1,False,None,T02,r1,2021-04-26_18h44.07.777,subsecond_timing_v2,2021.1.2,Linux x86_64,60.0060006
space,0.80196,space,0.89631,,,ms_small,0,163,163,163,1,0.882,0.3,False,None,T02,r1,2021-04-26_18h44.07.777,subsecond_timing_v2,2021.1.2,Linux x86_64,60.0060006
space,1.6197,space,0.73492,,,ms_small,0,164,164,164,1,0.988,0.1,False,None,T02,r1,2021-04-26_18h44.07.777,subsecond_timing_v2,2021.1.2,Linux x86_64,60.0060006
space,0.84535,space,0.75024,,,ms_small,0,165,165,165,1,0.706,0.1,False,None,T02,r1,2021-04-26_18h44.07.777,subsecond_timing_v2,2021.1.2,Linux x86_64,60.0060006
space,0.621665,space,1.067145,,,ms_small,0,166,166,166,1,1.024,0.3,False,None,T02,r1,2021-04-26_18h44.07.777,subsecond_timing_v2,2021.1.2,Linux x86_64,60.0060006
space,0.835105,space,0.834945,,,ms_small,0,167,167,167,1,0.847,0.3,False,None,T02,r1,2021-04-26_18h44.07.777,subsecond_timing_v2,2021.1.2,Linux x86_64,60.0060006
space,1.488535,space,0.53726,,,ms_small,0,168,168,168,1,0.741,0.3,False,None,T02,r1,2021-04-26_18h44.07.777,subsecond_timing_v2,2021.1.2,Linux x86_64,60.0060006
space,0.90438,space,0.89254,,,ms_small,0,169,169,169,1,0.918,0.2,False,None,T02,r1,2021-04-26_18h44.07.777,subsecond_timing_v2,2021.1.2,Linux x86_64,60.0060006
space,0.935275,space,0.84244,,,ms_small,0,170,170,170,1,0.776,0.1,False,None,T02,r1,2021-04-26_18h44.07.777,subsecond_timing_v2,2021.1.2,Linux x86_64,60.0060006
space,0.70917,space,0.94085,,,ms_small,0,171,171,171,1,0.882,0.3,False,None,T02,r1,2021-04-26_18h44.07.777,subsecond_timing_v2,2021.1.2,Linux x86_64,60.0060006
space,0.72544,space,0.865385,,,ms_small,0,172,172,172,1,0.741,0.1,False,None,T02,r1,2021-04-26_18h44.07.777,subsecond_timing_v2,2021.1.2,Linux x86_64,60.0060006
space,0.61121,space,0.924145,,,ms_small,0,173,173,173,1,0.988,0.1,False,None,T02,r1,2021-04-26_18h44.07.777,subsecond_timing_v2,2021.1.2,Linux x86_64,60.0060006
space,0.670485,space,0.6369,,,ms_small,0,174,174,174,1,0.706,0.2,False,None,T02,r1,2021-04-26_18h44.07.777,subsecond_timing_v2,2021.1.2,Linux x86_64,60.0060006
space,0.893075,space,0.554255,,,ms_small,0,175,175,175,1,0.918,0.2,False,None,T02,r1,2021-04-26_18h44.07.777,subsecond_timing_v2,2021.1.2,Linux x86_64,60.0060006
space,0.987365,space,0.989825,,,ms_small,0,176,176,176,1,0.953,0.2,False,None,T02,r1,2021-04-26_18h44.07.777,subsecond_timing_v2,2021.1.2,Linux x86_64,60.0060006
space,0.733745,space,0.95529,,,ms_small,0,177,177,177,1,0.67,0.2,False,None,T02,r1,2021-04-26_18h44.07.777,subsecond_timing_v2,2021.1.2,Linux x86_64,60.0060006
space,1.478475,space,0.73375,,,ms_small,0,178,178,178,1,0.847,0.3,False,None,T02,r1,2021-04-26_18h44.07.777,subsecond_timing_v2,2021.1.2,Linux x86_64,60.0060006
space,0.80633,space,0.75278,,,ms_small,0,179,179,179,1,0.776,0.1,False,None,T02,r1,2021-04-26_18h44.07.777,subsecond_timing_v2,2021.1.2,Linux x86_64,60.0060006
space,0.78757,space,0.786385,,,ms_small,0,180,180,180,1,0.812,0.1,False,None,T02,r1,2021-04-26_18h44.07.777,subsecond_timing_v2,2021.1.2,Linux x86_64,60.0060006
space,0.62481,space,1.08747,,,ms_small,0,181,181,181,1,1.024,0.2,False,None,T02,r1,2021-04-26_18h44.07.777,subsecond_timing_v2,2021.1.2,Linux x86_64,60.0060006
space,1.001395,space,0.949525,,,ms_small,0,182,182,182,1,0.706,0.3,False,None,T02,r1,2021-04-26_18h44.07.777,subsecond_timing_v2,2021.1.2,Linux x86_64,60.0060006
space,0.748175,space,1.06712,,,ms_small,0,183,183,183,1,0.988,0.1,False,None,T02,r1,2021-04-26_18h44.07.777,subsecond_timing_v2,2021.1.2,Linux x86_64,60.0060006
space,0.808865,space,1.20357,,,ms_small,0,184,184,184,1,1.024,0.3,False,None,T02,r1,2021-04-26_18h44.07.777,subsecond_timing_v2,2021.1.2,Linux x86_64,60.0060006
space,1.07098,space,0.84084,,,ms_small,0,185,185,185,1,0.847,0.1,False,None,T02,r1,2021-04-26_18h44.07.777,subsecond_timing_v2,2021.1.2,Linux x86_64,60.0060006
space,1.209515,space,0.80164,,,ms_small,0,186,186,186,1,0.741,0.1,False,None,T02,r1,2021-04-26_18h44.07.777,subsecond_timing_v2,2021.1.2,Linux x86_64,60.0060006
space,0.785005,space,0.949955,,,ms_small,0,187,187,187,1,0.776,0.3,False,None,T02,r1,2021-04-26_18h44.07.777,subsecond_timing_v2,2021.1.2,Linux x86_64,60.0060006
space,1.402805,space,0.670305,,,ms_small,0,188,188,188,1,0.812,0.3,False,None,T02,r1,2021-04-26_18h44.07.777,subsecond_timing_v2,2021.1.2,Linux x86_64,60.0060006
space,0.762645,space,0.953145,,,ms_small,0,189,189,189,1,0.918,0.3,False,None,T02,r1,2021-04-26_18h44.07.777,subsecond_timing_v2,2021.1.2,Linux x86_64,60.0060006
space,0.730645,space,0.8606,,,ms_small,0,190,190,190,1,0.67,0.1,False,None,T02,r1,2021-04-26_18h44.07.777,subsecond_timing_v2,2021.1.2,Linux x86_64,60.0060006
space,0.943395,space,1.10247,,,ms_small,0,191,191,191,1,0.882,0.2,False,None,T02,r1,2021-04-26_18h44.07.777,subsecond_timing_v2,2021.1.2,Linux x86_64,60.0060006
space,0.710745,space,1.35587,,,ms_small,0,192,192,192,1,0.953,0.1,False,None,T02,r1,2021-04-26_18h44.07.777,subsecond_timing_v2,2021.1.2,Linux x86_64,60.0060006
space,0.87448,space,0.72097,,,ms_small,0,193,193,193,1,0.776,0.1,False,None,T02,r1,2021-04-26_18h44.07.777,subsecond_timing_v2,2021.1.2,Linux x86_64,60.0060006
space,0.77059,space,0.82073,,,ms_small,0,194,194,194,1,0.988,0.3,False,None,T02,r1,2021-04-26_18h44.07.777,subsecond_timing_v2,2021.1.2,Linux x86_64,60.0060006
space,0.702875,space,0.968855,,,ms_small,0,195,195,195,1,0.953,0.1,False,None,T02,r1,2021-04-26_18h44.07.777,subsecond_timing_v2,2021.1.2,Linux x86_64,60.0060006
space,0.90303,space,0.641195,,,ms_small,0,196,196,196,1,0.741,0.3,False,None,T02,r1,2021-04-26_18h44.07.777,subsecond_timing_v2,2021.1.2,Linux x86_64,60.0060006
space,0.734425,space,0.659615,,,ms_small,0,197,197,197,1,0.67,0.3,False,None,T02,r1,2021-04-26_18h44.07.777,subsecond_timing_v2,2021.1.2,Linux x86_64,60.0060006
space,0.87043,space,0.584965,,,ms_small,0,198,198,198,1,0.847,0.3,False,None,T02,r1,2021-04-26_18h44.07.777,subsecond_timing_v2,2021.1.2,Linux x86_64,60.0060006
space,1.634485,space,0.63496,,,ms_small,0,199,199,199,1,0.882,0.2,False,None,T02,r1,2021-04-26_18h44.07.777,subsecond_timing_v2,2021.1.2,Linux x86_64,60.0060006
space,0.8956,space,0.75615,,,ms_small,0,200,200,200,1,0.706,0.3,False,None,T02,r1,2021-04-26_18h44.07.777,subsecond_timing_v2,2021.1.2,Linux x86_64,60.0060006
space,0.687805,space,0.75972,,,ms_small,0,201,201,201,1,0.812,0.1,False,None,T02,r1,2021-04-26_18h44.07.777,subsecond_timing_v2,2021.1.2,Linux x86_64,60.0060006
space,0.407555,space,0.773465,,,ms_small,0,202,202,202,1,1.024,0.2,False,None,T02,r1,2021-04-26_18h44.07.777,subsecond_timing_v2,2021.1.2,Linux x86_64,60.0060006
space,0.636355,space,0.966575,,,ms_small,0,203,203,203,1,0.918,0.1,False,None,T02,r1,2021-04-26_18h44.07.777,subsecond_timing_v2,2021.1.2,Linux x86_64,60.0060006
space,1.54013,space,0.60069,,,ms_small,0,204,204,204,1,0.776,0.2,False,None,T02,r1,2021-04-26_18h44.07.777,subsecond_timing_v2,2021.1.2,Linux x86_64,60.0060006
space,1.44206,space,0.540295,,,ms_small,0,205,205,205,1,0.67,0.1,False,None,T02,r1,2021-04-26_18h44.07.777,subsecond_timing_v2,2021.1.2,Linux x86_64,60.0060006
space,0.699375,space,0.65606,,,ms_small,0,206,206,206,1,0.706,0.3,False,None,T02,r1,2021-04-26_18h44.07.777,subsecond_timing_v2,2021.1.2,Linux x86_64,60.0060006
space,0.543535,space,1.01709,,,ms_small,0,207,207,207,1,0.988,0.2,False,None,T02,r1,2021-04-26_18h44.07.777,subsecond_timing_v2,2021.1.2,Linux x86_64,60.0060006
space,0.56708,space,1.03587,,,ms_small,0,208,208,208,1,0.847,0.3,False,None,T02,r1,2021-04-26_18h44.07.777,subsecond_timing_v2,2021.1.2,Linux x86_64,60.0060006
space,1.1554,space,0.77989,,,ms_small,0,209,209,209,1,0.953,0.2,False,None,T02,r1,2021-04-26_18h44.07.777,subsecond_timing_v2,2021.1.2,Linux x86_64,60.0060006
space,0.885965,space,0.918385,,,ms_small,0,210,210,210,1,0.812,0.1,False,None,T02,r1,2021-04-26_18h44.07.777,subsecond_timing_v2,2021.1.2,Linux x86_64,60.0060006
space,0.736185,space,0.703335,,,ms_small,0,211,211,211,1,0.918,0.1,False,None,T02,r1,2021-04-26_18h44.07.777,subsecond_timing_v2,2021.1.2,Linux x86_64,60.0060006
space,0.51742,space,0.68181,,,ms_small,0,212,212,212,1,0.741,0.3,False,None,T02,r1,2021-04-26_18h44.07.777,subsecond_timing_v2,2021.1.2,Linux x86_64,60.0060006
space,1.01758,space,0.99381,,,ms_small,0,213,213,213,1,0.882,0.3,False,None,T02,r1,2021-04-26_18h44.07.777,subsecond_timing_v2,2021.1.2,Linux x86_64,60.0060006
space,0.59218,space,0.968435,,,ms_small,0,214,214,214,1,1.024,0.1,False,None,T02,r1,2021-04-26_18h44.07.777,subsecond_timing_v2,2021.1.2,Linux x86_64,60.0060006
space,0.693265,space,1.00364,,,ms_small,0,215,215,215,1,1.024,0.2,False,None,T02,r1,2021-04-26_18h44.07.777,subsecond_timing_v2,2021.1.2,Linux x86_64,60.0060006
space,0.82004,space,0.90204,,,ms_small,0,216,216,216,1,0.706,0.2,False,None,T02,r1,2021-04-26_18h44.07.777,subsecond_timing_v2,2021.1.2,Linux x86_64,60.0060006
space,0.622095,space,0.69221,,,ms_small,0,217,217,217,1,0.882,0.1,False,None,T02,r1,2021-04-26_18h44.07.777,subsecond_timing_v2,2021.1.2,Linux x86_64,60.0060006
space,0.938765,space,0.82587,,,ms_small,0,218,218,218,1,0.776,0.2,False,None,T02,r1,2021-04-26_18h44.07.777,subsecond_timing_v2,2021.1.2,Linux x86_64,60.0060006
space,0.772995,space,1.07387,,,ms_small,0,219,219,219,1,0.847,0.2,False,None,T02,r1,2021-04-26_18h44.07.777,subsecond_timing_v2,2021.1.2,Linux x86_64,60.0060006
space,0.6197,space,0.80842,,,ms_small,0,220,220,220,1,0.812,0.1,False,None,T02,r1,2021-04-26_18h44.07.777,subsecond_timing_v2,2021.1.2,Linux x86_64,60.0060006
space,0.68851,space,0.925425,,,ms_small,0,221,221,221,1,0.988,0.1,False,None,T02,r1,2021-04-26_18h44.07.777,subsecond_timing_v2,2021.1.2,Linux x86_64,60.0060006
space,0.72244,space,0.868405,,,ms_small,0,222,222,222,1,0.918,0.1,False,None,T02,r1,2021-04-26_18h44.07.777,subsecond_timing_v2,2021.1.2,Linux x86_64,60.0060006
space,0.642605,space,0.79031,,,ms_small,0,223,223,223,1,0.67,0.2,False,None,T02,r1,2021-04-26_18h44.07.777,subsecond_timing_v2,2021.1.2,Linux x86_64,60.0060006
space,0.270725,space,0.92747,,,ms_small,0,224,224,224,1,0.741,0.3,False,None,T02,r1,2021-04-26_18h44.07.777,subsecond_timing_v2,2021.1.2,Linux x86_64,60.0060006
space,0.942165,space,0.83395,,,ms_small,0,225,225,225,1,0.953,0.1,False,None,T02,r1,2021-04-26_18h44.07.777,subsecond_timing_v2,2021.1.2,Linux x86_64,60.0060006
