key_resp_start.keys,key_resp_start.rt,key_resp_stop.keys,key_resp_stop.rt,feedback_range,hit,stimulus_range,trials.thisRepN,trials.thisTrialN,trials.thisN,trials.thisIndex,trials.ran,stimulus_duration,onset,feedback,feedback_range_fromfile,participant,session,date,expName,psychopyVersion,OS,frameRate
space,1.10112,space,1.073575,0.3,TRUE,Training,0,0,0,0,1,1,0.3,True,0.3,T05,r1,2021-04-28_15h42.09.368,subsecond_timing_v2,2021.1.2,Win32,59.96282305
space,7.78636,space,1.3552,0.3,FALSE,Training,0,1,1,1,1,0.75,0.1,True,0.3,T05,r1,2021-04-28_15h42.09.368,subsecond_timing_v2,2021.1.2,Win32,59.96282305
space,0.791565,space,0.57618,0.3,TRUE,Training,0,2,2,2,1,0.5,0.1,True,0.3,T05,r1,2021-04-28_15h42.09.368,subsecond_timing_v2,2021.1.2,Win32,59.96282305
space,0.766945,space,0.61798,0.3,TRUE,Training,0,3,3,3,1,0.5,0.2,True,0.3,T05,r1,2021-04-28_15h42.09.368,subsecond_timing_v2,2021.1.2,Win32,59.96282305
space,0.770225,space,1.201635,0.3,FALSE,Training,0,4,4,4,1,0.75,0.2,True,0.3,T05,r1,2021-04-28_15h42.09.368,subsecond_timing_v2,2021.1.2,Win32,59.96282305
space,0.902825,space,1.106535,0.3,TRUE,Training,0,5,5,5,1,1,0.3,True,0.3,T05,r1,2021-04-28_15h42.09.368,subsecond_timing_v2,2021.1.2,Win32,59.96282305
space,0.93826,space,0.835945,,,ms_small,0,6,6,6,1,0.706,0.2,False,None,T05,r1,2021-04-28_15h42.09.368,subsecond_timing_v2,2021.1.2,Win32,59.96282305
space,1.101895,space,0.434985,,,ms_small,0,7,7,7,1,0.812,0.3,False,None,T05,r1,2021-04-28_15h42.09.368,subsecond_timing_v2,2021.1.2,Win32,59.96282305
space,0.771495,space,0.892185,,,ms_small,0,8,8,8,1,0.847,0.1,False,None,T05,r1,2021-04-28_15h42.09.368,subsecond_timing_v2,2021.1.2,Win32,59.96282305
space,0.941005,space,1.078775,,,ms_small,0,9,9,9,1,0.67,0.3,False,None,T05,r1,2021-04-28_15h42.09.368,subsecond_timing_v2,2021.1.2,Win32,59.96282305
space,0.801435,space,1.367545,,,ms_small,0,10,10,10,1,0.988,0.1,False,None,T05,r1,2021-04-28_15h42.09.368,subsecond_timing_v2,2021.1.2,Win32,59.96282305
space,0.88202,space,1.03731,,,ms_small,0,11,11,11,1,0.953,0.1,False,None,T05,r1,2021-04-28_15h42.09.368,subsecond_timing_v2,2021.1.2,Win32,59.96282305
space,0.828875,space,0.768125,,,ms_small,0,12,12,12,1,0.882,0.3,False,None,T05,r1,2021-04-28_15h42.09.368,subsecond_timing_v2,2021.1.2,Win32,59.96282305
space,1.55268,space,0.91829,,,ms_small,0,13,13,13,1,0.918,0.1,False,None,T05,r1,2021-04-28_15h42.09.368,subsecond_timing_v2,2021.1.2,Win32,59.96282305
space,1.33958,space,0.996695,,,ms_small,0,14,14,14,1,0.776,0.2,False,None,T05,r1,2021-04-28_15h42.09.368,subsecond_timing_v2,2021.1.2,Win32,59.96282305
space,0.975645,space,0.868285,,,ms_small,0,15,15,15,1,0.741,0.3,False,None,T05,r1,2021-04-28_15h42.09.368,subsecond_timing_v2,2021.1.2,Win32,59.96282305
space,0.68696,space,1.28675,,,ms_small,0,16,16,16,1,1.024,0.3,False,None,T05,r1,2021-04-28_15h42.09.368,subsecond_timing_v2,2021.1.2,Win32,59.96282305
space,1.64696,space,0.913175,,,ms_small,0,17,17,17,1,0.67,0.1,False,None,T05,r1,2021-04-28_15h42.09.368,subsecond_timing_v2,2021.1.2,Win32,59.96282305
space,0.546445,space,1.05157,,,ms_small,0,18,18,18,1,0.812,0.3,False,None,T05,r1,2021-04-28_15h42.09.368,subsecond_timing_v2,2021.1.2,Win32,59.96282305
space,0.785715,space,0.991255,,,ms_small,0,19,19,19,1,0.953,0.3,False,None,T05,r1,2021-04-28_15h42.09.368,subsecond_timing_v2,2021.1.2,Win32,59.96282305
space,0.88603,space,1.02189,,,ms_small,0,20,20,20,1,0.776,0.1,False,None,T05,r1,2021-04-28_15h42.09.368,subsecond_timing_v2,2021.1.2,Win32,59.96282305
space,0.77539,space,0.7677,,,ms_small,0,21,21,21,1,0.741,0.2,False,None,T05,r1,2021-04-28_15h42.09.368,subsecond_timing_v2,2021.1.2,Win32,59.96282305
space,0.43417,space,0.813,,,ms_small,0,22,22,22,1,0.847,0.2,False,None,T05,r1,2021-04-28_15h42.09.368,subsecond_timing_v2,2021.1.2,Win32,59.96282305
space,0.624165,space,0.904885,,,ms_small,0,23,23,23,1,1.024,0.1,False,None,T05,r1,2021-04-28_15h42.09.368,subsecond_timing_v2,2021.1.2,Win32,59.96282305
space,0.705125,space,0.787555,,,ms_small,0,24,24,24,1,0.882,0.3,False,None,T05,r1,2021-04-28_15h42.09.368,subsecond_timing_v2,2021.1.2,Win32,59.96282305
space,0.89523,space,0.801565,,,ms_small,0,25,25,25,1,0.988,0.1,False,None,T05,r1,2021-04-28_15h42.09.368,subsecond_timing_v2,2021.1.2,Win32,59.96282305
space,0.958775,space,0.83858,,,ms_small,0,26,26,26,1,0.706,0.2,False,None,T05,r1,2021-04-28_15h42.09.368,subsecond_timing_v2,2021.1.2,Win32,59.96282305
space,0.928355,space,0.95148,,,ms_small,0,27,27,27,1,0.918,0.3,False,None,T05,r1,2021-04-28_15h42.09.368,subsecond_timing_v2,2021.1.2,Win32,59.96282305
space,0.90781,space,0.7909,,,ms_small,0,28,28,28,1,0.706,0.1,False,None,T05,r1,2021-04-28_15h42.09.368,subsecond_timing_v2,2021.1.2,Win32,59.96282305
space,0.851365,space,0.801685,,,ms_small,0,29,29,29,1,0.918,0.1,False,None,T05,r1,2021-04-28_15h42.09.368,subsecond_timing_v2,2021.1.2,Win32,59.96282305
space,0.8096,space,0.672345,,,ms_small,0,30,30,30,1,0.67,0.2,False,None,T05,r1,2021-04-28_15h42.09.368,subsecond_timing_v2,2021.1.2,Win32,59.96282305
space,0.63834,space,0.851915,,,ms_small,0,31,31,31,1,0.988,0.1,False,None,T05,r1,2021-04-28_15h42.09.368,subsecond_timing_v2,2021.1.2,Win32,59.96282305
space,0.59521,space,0.84662,,,ms_small,0,32,32,32,1,0.953,0.2,False,None,T05,r1,2021-04-28_15h42.09.368,subsecond_timing_v2,2021.1.2,Win32,59.96282305
space,0.90142,space,0.85813,,,ms_small,0,33,33,33,1,0.776,0.1,False,None,T05,r1,2021-04-28_15h42.09.368,subsecond_timing_v2,2021.1.2,Win32,59.96282305
space,0.951585,space,0.786865,,,ms_small,0,34,34,34,1,0.847,0.1,False,None,T05,r1,2021-04-28_15h42.09.368,subsecond_timing_v2,2021.1.2,Win32,59.96282305
space,0.7626,space,0.590885,,,ms_small,0,35,35,35,1,0.741,0.2,False,None,T05,r1,2021-04-28_15h42.09.368,subsecond_timing_v2,2021.1.2,Win32,59.96282305
space,0.623335,space,0.79463,,,ms_small,0,36,36,36,1,0.812,0.1,False,None,T05,r1,2021-04-28_15h42.09.368,subsecond_timing_v2,2021.1.2,Win32,59.96282305
space,0.86871,space,0.578635,,,ms_small,0,37,37,37,1,0.882,0.1,False,None,T05,r1,2021-04-28_15h42.09.368,subsecond_timing_v2,2021.1.2,Win32,59.96282305
space,0.737265,space,0.684725,,,ms_small,0,38,38,38,1,1.024,0.3,False,None,T05,r1,2021-04-28_15h42.09.368,subsecond_timing_v2,2021.1.2,Win32,59.96282305
space,0.85139,space,0.818435,,,ms_small,0,39,39,39,1,0.847,0.2,False,None,T05,r1,2021-04-28_15h42.09.368,subsecond_timing_v2,2021.1.2,Win32,59.96282305
space,0.860815,space,0.762095,,,ms_small,0,40,40,40,1,0.918,0.2,False,None,T05,r1,2021-04-28_15h42.09.368,subsecond_timing_v2,2021.1.2,Win32,59.96282305
space,0.912515,space,0.80961,,,ms_small,0,41,41,41,1,0.953,0.1,False,None,T05,r1,2021-04-28_15h42.09.368,subsecond_timing_v2,2021.1.2,Win32,59.96282305
space,0.858825,space,0.79555,,,ms_small,0,42,42,42,1,0.882,0.3,False,None,T05,r1,2021-04-28_15h42.09.368,subsecond_timing_v2,2021.1.2,Win32,59.96282305
space,0.911915,space,0.84531,,,ms_small,0,43,43,43,1,0.741,0.2,False,None,T05,r1,2021-04-28_15h42.09.368,subsecond_timing_v2,2021.1.2,Win32,59.96282305
space,0.995185,space,0.77222,,,ms_small,0,44,44,44,1,0.67,0.3,False,None,T05,r1,2021-04-28_15h42.09.368,subsecond_timing_v2,2021.1.2,Win32,59.96282305
space,0.94478,space,0.757915,,,ms_small,0,45,45,45,1,0.812,0.2,False,None,T05,r1,2021-04-28_15h42.09.368,subsecond_timing_v2,2021.1.2,Win32,59.96282305
space,0.77692,space,0.973625,,,ms_small,0,46,46,46,1,1.024,0.3,False,None,T05,r1,2021-04-28_15h42.09.368,subsecond_timing_v2,2021.1.2,Win32,59.96282305
space,0.94347,space,0.758235,,,ms_small,0,47,47,47,1,0.706,0.3,False,None,T05,r1,2021-04-28_15h42.09.368,subsecond_timing_v2,2021.1.2,Win32,59.96282305
space,0.80353,space,0.78994,,,ms_small,0,48,48,48,1,0.988,0.2,False,None,T05,r1,2021-04-28_15h42.09.368,subsecond_timing_v2,2021.1.2,Win32,59.96282305
space,0.8957,space,0.89409,,,ms_small,0,49,49,49,1,0.776,0.1,False,None,T05,r1,2021-04-28_15h42.09.368,subsecond_timing_v2,2021.1.2,Win32,59.96282305
space,0.96792,space,0.851335,,,ms_small,0,50,50,50,1,0.988,0.1,False,None,T05,r1,2021-04-28_15h42.09.368,subsecond_timing_v2,2021.1.2,Win32,59.96282305
space,0.86806,space,0.7753,,,ms_small,0,51,51,51,1,0.706,0.3,False,None,T05,r1,2021-04-28_15h42.09.368,subsecond_timing_v2,2021.1.2,Win32,59.96282305
space,0.84349,space,0.902655,,,ms_small,0,52,52,52,1,0.953,0.2,False,None,T05,r1,2021-04-28_15h42.09.368,subsecond_timing_v2,2021.1.2,Win32,59.96282305
space,0.96837,space,0.851145,,,ms_small,0,53,53,53,1,0.847,0.2,False,None,T05,r1,2021-04-28_15h42.09.368,subsecond_timing_v2,2021.1.2,Win32,59.96282305
space,0.935035,space,0.892305,,,ms_small,0,54,54,54,1,0.918,0.3,False,None,T05,r1,2021-04-28_15h42.09.368,subsecond_timing_v2,2021.1.2,Win32,59.96282305
space,0.95528,space,0.796,,,ms_small,0,55,55,55,1,0.741,0.1,False,None,T05,r1,2021-04-28_15h42.09.368,subsecond_timing_v2,2021.1.2,Win32,59.96282305
space,0.58478,space,0.6856,,,ms_small,0,56,56,56,1,0.67,0.1,False,None,T05,r1,2021-04-28_15h42.09.368,subsecond_timing_v2,2021.1.2,Win32,59.96282305
space,0.655845,space,0.80818,,,ms_small,0,57,57,57,1,0.776,0.2,False,None,T05,r1,2021-04-28_15h42.09.368,subsecond_timing_v2,2021.1.2,Win32,59.96282305
space,0.869275,space,0.685915,,,ms_small,0,58,58,58,1,0.882,0.1,False,None,T05,r1,2021-04-28_15h42.09.368,subsecond_timing_v2,2021.1.2,Win32,59.96282305
space,0.9546,space,0.718395,,,ms_small,0,59,59,59,1,0.812,0.2,False,None,T05,r1,2021-04-28_15h42.09.368,subsecond_timing_v2,2021.1.2,Win32,59.96282305
space,0.80794,space,0.80221,,,ms_small,0,60,60,60,1,1.024,0.2,False,None,T05,r1,2021-04-28_15h42.09.368,subsecond_timing_v2,2021.1.2,Win32,59.96282305
space,0.94083,space,0.78496,,,ms_small,0,61,61,61,1,0.847,0.3,False,None,T05,r1,2021-04-28_15h42.09.368,subsecond_timing_v2,2021.1.2,Win32,59.96282305
space,0.62721,space,0.60141,,,ms_small,0,62,62,62,1,0.67,0.1,False,None,T05,r1,2021-04-28_15h42.09.368,subsecond_timing_v2,2021.1.2,Win32,59.96282305
space,0.646555,space,0.89578,,,ms_small,0,63,63,63,1,0.988,0.3,False,None,T05,r1,2021-04-28_15h42.09.368,subsecond_timing_v2,2021.1.2,Win32,59.96282305
space,0.855685,space,0.663525,,,ms_small,0,64,64,64,1,0.812,0.1,False,None,T05,r1,2021-04-28_15h42.09.368,subsecond_timing_v2,2021.1.2,Win32,59.96282305
space,0.844785,space,0.68841,,,ms_small,0,65,65,65,1,0.882,0.3,False,None,T05,r1,2021-04-28_15h42.09.368,subsecond_timing_v2,2021.1.2,Win32,59.96282305
space,0.78421,space,0.656975,,,ms_small,0,66,66,66,1,0.918,0.1,False,None,T05,r1,2021-04-28_15h42.09.368,subsecond_timing_v2,2021.1.2,Win32,59.96282305
space,2.076325,space,0.725615,,,ms_small,0,67,67,67,1,1.024,0.1,False,None,T05,r1,2021-04-28_15h42.09.368,subsecond_timing_v2,2021.1.2,Win32,59.96282305
space,0.734545,space,0.668325,,,ms_small,0,68,68,68,1,0.776,0.2,False,None,T05,r1,2021-04-28_15h42.09.368,subsecond_timing_v2,2021.1.2,Win32,59.96282305
space,0.46842,space,0.63497,,,ms_small,0,69,69,69,1,0.953,0.1,False,None,T05,r1,2021-04-28_15h42.09.368,subsecond_timing_v2,2021.1.2,Win32,59.96282305
space,0.525205,space,0.64017,,,ms_small,0,70,70,70,1,0.706,0.1,False,None,T05,r1,2021-04-28_15h42.09.368,subsecond_timing_v2,2021.1.2,Win32,59.96282305
space,0.54081,space,0.63498,,,ms_small,0,71,71,71,1,0.741,0.3,False,None,T05,r1,2021-04-28_15h42.09.368,subsecond_timing_v2,2021.1.2,Win32,59.96282305
space,0.552475,space,0.677705,,,ms_small,0,72,72,72,1,0.882,0.2,False,None,T05,r1,2021-04-28_15h42.09.368,subsecond_timing_v2,2021.1.2,Win32,59.96282305
space,0.660885,space,0.820115,,,ms_small,0,73,73,73,1,0.918,0.3,False,None,T05,r1,2021-04-28_15h42.09.368,subsecond_timing_v2,2021.1.2,Win32,59.96282305
space,0.77562,space,0.785395,,,ms_small,0,74,74,74,1,0.988,0.2,False,None,T05,r1,2021-04-28_15h42.09.368,subsecond_timing_v2,2021.1.2,Win32,59.96282305
space,0.75241,space,0.73505,,,ms_small,0,75,75,75,1,0.67,0.1,False,None,T05,r1,2021-04-28_15h42.09.368,subsecond_timing_v2,2021.1.2,Win32,59.96282305
space,0.753025,space,0.643835,,,ms_small,0,76,76,76,1,0.776,0.3,False,None,T05,r1,2021-04-28_15h42.09.368,subsecond_timing_v2,2021.1.2,Win32,59.96282305
space,0.77993,space,0.75135,,,ms_small,0,77,77,77,1,0.847,0.2,False,None,T05,r1,2021-04-28_15h42.09.368,subsecond_timing_v2,2021.1.2,Win32,59.96282305
space,0.60172,space,0.827995,,,ms_small,0,78,78,78,1,1.024,0.2,False,None,T05,r1,2021-04-28_15h42.09.368,subsecond_timing_v2,2021.1.2,Win32,59.96282305
space,0.852815,space,0.687225,,,ms_small,0,79,79,79,1,0.812,0.3,False,None,T05,r1,2021-04-28_15h42.09.368,subsecond_timing_v2,2021.1.2,Win32,59.96282305
space,0.6771,space,0.819665,,,ms_small,0,80,80,80,1,0.953,0.1,False,None,T05,r1,2021-04-28_15h42.09.368,subsecond_timing_v2,2021.1.2,Win32,59.96282305
space,0.90875,space,0.808905,,,ms_small,0,81,81,81,1,0.706,0.2,False,None,T05,r1,2021-04-28_15h42.09.368,subsecond_timing_v2,2021.1.2,Win32,59.96282305
space,0.868305,space,0.734445,,,ms_small,0,82,82,82,1,0.741,0.3,False,None,T05,r1,2021-04-28_15h42.09.368,subsecond_timing_v2,2021.1.2,Win32,59.96282305
space,0.484685,space,0.818235,,,ms_small,0,83,83,83,1,0.706,0.1,False,None,T05,r1,2021-04-28_15h42.09.368,subsecond_timing_v2,2021.1.2,Win32,59.96282305
space,1.038795,space,0.826015,,,ms_small,0,84,84,84,1,0.812,0.2,False,None,T05,r1,2021-04-28_15h42.09.368,subsecond_timing_v2,2021.1.2,Win32,59.96282305
space,1.085245,space,0.91824,,,ms_small,0,85,85,85,1,0.882,0.2,False,None,T05,r1,2021-04-28_15h42.09.368,subsecond_timing_v2,2021.1.2,Win32,59.96282305
space,0.97283,space,0.73707,,,ms_small,0,86,86,86,1,0.776,0.1,False,None,T05,r1,2021-04-28_15h42.09.368,subsecond_timing_v2,2021.1.2,Win32,59.96282305
space,0.636005,space,0.984645,,,ms_small,0,87,87,87,1,0.988,0.3,False,None,T05,r1,2021-04-28_15h42.09.368,subsecond_timing_v2,2021.1.2,Win32,59.96282305
space,0.88496,space,0.76242,,,ms_small,0,88,88,88,1,0.67,0.2,False,None,T05,r1,2021-04-28_15h42.09.368,subsecond_timing_v2,2021.1.2,Win32,59.96282305
space,0.93853,space,0.7274,,,ms_small,0,89,89,89,1,0.741,0.3,False,None,T05,r1,2021-04-28_15h42.09.368,subsecond_timing_v2,2021.1.2,Win32,59.96282305
space,0.78706,space,0.757135,,,ms_small,0,90,90,90,1,0.918,0.1,False,None,T05,r1,2021-04-28_15h42.09.368,subsecond_timing_v2,2021.1.2,Win32,59.96282305
space,0.47479,space,0.954165,,,ms_small,0,91,91,91,1,0.847,0.3,False,None,T05,r1,2021-04-28_15h42.09.368,subsecond_timing_v2,2021.1.2,Win32,59.96282305
space,0.59357,space,0.88023,,,ms_small,0,92,92,92,1,0.953,0.2,False,None,T05,r1,2021-04-28_15h42.09.368,subsecond_timing_v2,2021.1.2,Win32,59.96282305
space,0.5462,space,0.76053,,,ms_small,0,93,93,93,1,1.024,0.2,False,None,T05,r1,2021-04-28_15h42.09.368,subsecond_timing_v2,2021.1.2,Win32,59.96282305
space,0.685145,space,0.905015,,,ms_small,0,94,94,94,1,0.882,0.1,False,None,T05,r1,2021-04-28_15h42.09.368,subsecond_timing_v2,2021.1.2,Win32,59.96282305
space,0.977075,space,0.893255,,,ms_small,0,95,95,95,1,0.67,0.2,False,None,T05,r1,2021-04-28_15h42.09.368,subsecond_timing_v2,2021.1.2,Win32,59.96282305
space,0.742,space,0.80526,,,ms_small,0,96,96,96,1,0.918,0.3,False,None,T05,r1,2021-04-28_15h42.09.368,subsecond_timing_v2,2021.1.2,Win32,59.96282305
space,0.920615,space,0.956975,,,ms_small,0,97,97,97,1,0.706,0.2,False,None,T05,r1,2021-04-28_15h42.09.368,subsecond_timing_v2,2021.1.2,Win32,59.96282305
space,0.768235,space,0.69272,,,ms_small,0,98,98,98,1,0.988,0.1,False,None,T05,r1,2021-04-28_15h42.09.368,subsecond_timing_v2,2021.1.2,Win32,59.96282305
space,0.857305,space,0.729515,,,ms_small,0,99,99,99,1,0.741,0.3,False,None,T05,r1,2021-04-28_15h42.09.368,subsecond_timing_v2,2021.1.2,Win32,59.96282305
space,0.729945,space,0.891895,,,ms_small,0,100,100,100,1,1.024,0.2,False,None,T05,r1,2021-04-28_15h42.09.368,subsecond_timing_v2,2021.1.2,Win32,59.96282305
space,0.852725,space,0.651305,,,ms_small,0,101,101,101,1,0.776,0.2,False,None,T05,r1,2021-04-28_15h42.09.368,subsecond_timing_v2,2021.1.2,Win32,59.96282305
space,0.8402,space,0.74244,,,ms_small,0,102,102,102,1,0.812,0.2,False,None,T05,r1,2021-04-28_15h42.09.368,subsecond_timing_v2,2021.1.2,Win32,59.96282305
space,0.75442,space,0.7093,,,ms_small,0,103,103,103,1,0.953,0.2,False,None,T05,r1,2021-04-28_15h42.09.368,subsecond_timing_v2,2021.1.2,Win32,59.96282305
space,0.81451,space,0.78999,,,ms_small,0,104,104,104,1,0.847,0.1,False,None,T05,r1,2021-04-28_15h42.09.368,subsecond_timing_v2,2021.1.2,Win32,59.96282305
space,0.80176,space,0.684505,,,ms_small,0,105,105,105,1,0.706,0.2,False,None,T05,r1,2021-04-28_15h42.09.368,subsecond_timing_v2,2021.1.2,Win32,59.96282305
space,0.760305,space,0.684915,,,ms_small,0,106,106,106,1,0.741,0.1,False,None,T05,r1,2021-04-28_15h42.09.368,subsecond_timing_v2,2021.1.2,Win32,59.96282305
space,0.785605,space,0.72488,,,ms_small,0,107,107,107,1,0.67,0.1,False,None,T05,r1,2021-04-28_15h42.09.368,subsecond_timing_v2,2021.1.2,Win32,59.96282305
space,0.652095,space,0.77214,,,ms_small,0,108,108,108,1,0.847,0.1,False,None,T05,r1,2021-04-28_15h42.09.368,subsecond_timing_v2,2021.1.2,Win32,59.96282305
space,0.87624,space,0.69502,,,ms_small,0,109,109,109,1,0.812,0.2,False,None,T05,r1,2021-04-28_15h42.09.368,subsecond_timing_v2,2021.1.2,Win32,59.96282305
space,0.753175,space,0.64195,,,ms_small,0,110,110,110,1,0.776,0.3,False,None,T05,r1,2021-04-28_15h42.09.368,subsecond_timing_v2,2021.1.2,Win32,59.96282305
space,0.669205,space,0.80127,,,ms_small,0,111,111,111,1,0.988,0.3,False,None,T05,r1,2021-04-28_15h42.09.368,subsecond_timing_v2,2021.1.2,Win32,59.96282305
space,0.892215,space,0.64475,,,ms_small,0,112,112,112,1,0.918,0.1,False,None,T05,r1,2021-04-28_15h42.09.368,subsecond_timing_v2,2021.1.2,Win32,59.96282305
space,0.863275,space,0.690765,,,ms_small,0,113,113,113,1,0.882,0.1,False,None,T05,r1,2021-04-28_15h42.09.368,subsecond_timing_v2,2021.1.2,Win32,59.96282305
space,0.75167,space,0.79353,,,ms_small,0,114,114,114,1,1.024,0.2,False,None,T05,r1,2021-04-28_15h42.09.368,subsecond_timing_v2,2021.1.2,Win32,59.96282305
space,0.80989,space,0.769645,,,ms_small,0,115,115,115,1,0.953,0.2,False,None,T05,r1,2021-04-28_15h42.09.368,subsecond_timing_v2,2021.1.2,Win32,59.96282305
space,0.734605,space,0.691655,,,ms_small,0,116,116,116,1,0.847,0.3,False,None,T05,r1,2021-04-28_15h42.09.368,subsecond_timing_v2,2021.1.2,Win32,59.96282305
space,0.71848,space,0.738315,,,ms_small,0,117,117,117,1,0.882,0.2,False,None,T05,r1,2021-04-28_15h42.09.368,subsecond_timing_v2,2021.1.2,Win32,59.96282305
space,0.618155,space,0.83986,,,ms_small,0,118,118,118,1,1.024,0.1,False,None,T05,r1,2021-04-28_15h42.09.368,subsecond_timing_v2,2021.1.2,Win32,59.96282305
space,0.856,space,0.75799,,,ms_small,0,119,119,119,1,0.706,0.2,False,None,T05,r1,2021-04-28_15h42.09.368,subsecond_timing_v2,2021.1.2,Win32,59.96282305
space,0.836705,space,0.9403,,,ms_small,0,120,120,120,1,0.918,0.1,False,None,T05,r1,2021-04-28_15h42.09.368,subsecond_timing_v2,2021.1.2,Win32,59.96282305
space,0.869505,space,0.818535,,,ms_small,0,121,121,121,1,0.776,0.1,False,None,T05,r1,2021-04-28_15h42.09.368,subsecond_timing_v2,2021.1.2,Win32,59.96282305
space,0.84388,space,0.942215,,,ms_small,0,122,122,122,1,0.953,0.3,False,None,T05,r1,2021-04-28_15h42.09.368,subsecond_timing_v2,2021.1.2,Win32,59.96282305
space,1.04272,space,0.81966,,,ms_small,0,123,123,123,1,0.67,0.1,False,None,T05,r1,2021-04-28_15h42.09.368,subsecond_timing_v2,2021.1.2,Win32,59.96282305
space,0.851625,space,0.88713,,,ms_small,0,124,124,124,1,0.812,0.2,False,None,T05,r1,2021-04-28_15h42.09.368,subsecond_timing_v2,2021.1.2,Win32,59.96282305
space,0.7181,space,1.020315,,,ms_small,0,125,125,125,1,0.988,0.2,False,None,T05,r1,2021-04-28_15h42.09.368,subsecond_timing_v2,2021.1.2,Win32,59.96282305
space,0.941645,space,0.71163,,,ms_small,0,126,126,126,1,0.741,0.3,False,None,T05,r1,2021-04-28_15h42.09.368,subsecond_timing_v2,2021.1.2,Win32,59.96282305
space,0.92387,space,0.78972,,,ms_small,0,127,127,127,1,0.67,0.1,False,None,T05,r1,2021-04-28_15h42.09.368,subsecond_timing_v2,2021.1.2,Win32,59.96282305
space,1.05225,space,0.72245,,,ms_small,0,128,128,128,1,0.776,0.3,False,None,T05,r1,2021-04-28_15h42.09.368,subsecond_timing_v2,2021.1.2,Win32,59.96282305
space,1.09553,space,0.790285,,,ms_small,0,129,129,129,1,0.847,0.1,False,None,T05,r1,2021-04-28_15h42.09.368,subsecond_timing_v2,2021.1.2,Win32,59.96282305
space,0.877115,space,0.62975,,,ms_small,0,130,130,130,1,0.812,0.1,False,None,T05,r1,2021-04-28_15h42.09.368,subsecond_timing_v2,2021.1.2,Win32,59.96282305
space,0.45221,space,0.97566,,,ms_small,0,131,131,131,1,0.882,0.1,False,None,T05,r1,2021-04-28_15h42.09.368,subsecond_timing_v2,2021.1.2,Win32,59.96282305
space,0.561915,space,1.011225,,,ms_small,0,132,132,132,1,1.024,0.2,False,None,T05,r1,2021-04-28_15h42.09.368,subsecond_timing_v2,2021.1.2,Win32,59.96282305
space,0.735485,space,0.86983,,,ms_small,0,133,133,133,1,0.953,0.3,False,None,T05,r1,2021-04-28_15h42.09.368,subsecond_timing_v2,2021.1.2,Win32,59.96282305
space,0.784675,space,0.81258,,,ms_small,0,134,134,134,1,0.988,0.2,False,None,T05,r1,2021-04-28_15h42.09.368,subsecond_timing_v2,2021.1.2,Win32,59.96282305
space,0.867805,space,0.63774,,,ms_small,0,135,135,135,1,0.706,0.1,False,None,T05,r1,2021-04-28_15h42.09.368,subsecond_timing_v2,2021.1.2,Win32,59.96282305
space,1.94561,space,1.062025,,,ms_small,0,136,136,136,1,0.918,0.1,False,None,T05,r1,2021-04-28_15h42.09.368,subsecond_timing_v2,2021.1.2,Win32,59.96282305
space,0.74632,space,0.728235,,,ms_small,0,137,137,137,1,0.741,0.1,False,None,T05,r1,2021-04-28_15h42.09.368,subsecond_timing_v2,2021.1.2,Win32,59.96282305
space,0.412915,space,0.66816,,,ms_small,0,138,138,138,1,0.741,0.3,False,None,T05,r1,2021-04-28_15h42.09.368,subsecond_timing_v2,2021.1.2,Win32,59.96282305
space,0.909275,space,0.996205,,,ms_small,0,139,139,139,1,0.988,0.2,False,None,T05,r1,2021-04-28_15h42.09.368,subsecond_timing_v2,2021.1.2,Win32,59.96282305
space,0.894145,space,0.819785,,,ms_small,0,140,140,140,1,0.812,0.3,False,None,T05,r1,2021-04-28_15h42.09.368,subsecond_timing_v2,2021.1.2,Win32,59.96282305
space,0.902915,space,0.82416,,,ms_small,0,141,141,141,1,0.918,0.2,False,None,T05,r1,2021-04-28_15h42.09.368,subsecond_timing_v2,2021.1.2,Win32,59.96282305
space,0.808505,space,0.87658,,,ms_small,0,142,142,142,1,0.847,0.2,False,None,T05,r1,2021-04-28_15h42.09.368,subsecond_timing_v2,2021.1.2,Win32,59.96282305
space,0.89675,space,1.101825,,,ms_small,0,143,143,143,1,0.953,0.1,False,None,T05,r1,2021-04-28_15h42.09.368,subsecond_timing_v2,2021.1.2,Win32,59.96282305
space,0.967265,space,0.912325,,,ms_small,0,144,144,144,1,0.776,0.3,False,None,T05,r1,2021-04-28_15h42.09.368,subsecond_timing_v2,2021.1.2,Win32,59.96282305
space,0.960435,space,1.02775,,,ms_small,0,145,145,145,1,0.706,0.3,False,None,T05,r1,2021-04-28_15h42.09.368,subsecond_timing_v2,2021.1.2,Win32,59.96282305
space,0.888225,space,0.82029,,,ms_small,0,146,146,146,1,1.024,0.1,False,None,T05,r1,2021-04-28_15h42.09.368,subsecond_timing_v2,2021.1.2,Win32,59.96282305
space,0.93511,space,0.98764,,,ms_small,0,147,147,147,1,0.882,0.2,False,None,T05,r1,2021-04-28_15h42.09.368,subsecond_timing_v2,2021.1.2,Win32,59.96282305
space,1.001245,space,1.05644,,,ms_small,0,148,148,148,1,0.67,0.3,False,None,T05,r1,2021-04-28_15h42.09.368,subsecond_timing_v2,2021.1.2,Win32,59.96282305
space,1.06251,space,1.08488,,,ms_small,0,149,149,149,1,0.67,0.3,False,None,T05,r1,2021-04-28_15h42.09.368,subsecond_timing_v2,2021.1.2,Win32,59.96282305
space,0.875565,space,0.94107,,,ms_small,0,150,150,150,1,0.741,0.3,False,None,T05,r1,2021-04-28_15h42.09.368,subsecond_timing_v2,2021.1.2,Win32,59.96282305
space,0.81231,space,0.942205,,,ms_small,0,151,151,151,1,0.918,0.1,False,None,T05,r1,2021-04-28_15h42.09.368,subsecond_timing_v2,2021.1.2,Win32,59.96282305
space,1.04265,space,0.85589,,,ms_small,0,152,152,152,1,0.706,0.3,False,None,T05,r1,2021-04-28_15h42.09.368,subsecond_timing_v2,2021.1.2,Win32,59.96282305
space,0.868185,space,0.991755,,,ms_small,0,153,153,153,1,0.988,0.2,False,None,T05,r1,2021-04-28_15h42.09.368,subsecond_timing_v2,2021.1.2,Win32,59.96282305
space,0.81226,space,0.961245,,,ms_small,0,154,154,154,1,0.847,0.2,False,None,T05,r1,2021-04-28_15h42.09.368,subsecond_timing_v2,2021.1.2,Win32,59.96282305
space,0.859025,space,1.001845,,,ms_small,0,155,155,155,1,0.776,0.3,False,None,T05,r1,2021-04-28_15h42.09.368,subsecond_timing_v2,2021.1.2,Win32,59.96282305
space,0.92148,space,0.836265,,,ms_small,0,156,156,156,1,0.882,0.2,False,None,T05,r1,2021-04-28_15h42.09.368,subsecond_timing_v2,2021.1.2,Win32,59.96282305
space,0.951365,space,0.927105,,,ms_small,0,157,157,157,1,0.812,0.1,False,None,T05,r1,2021-04-28_15h42.09.368,subsecond_timing_v2,2021.1.2,Win32,59.96282305
space,0.80732,space,1.06298,,,ms_small,0,158,158,158,1,1.024,0.1,False,None,T05,r1,2021-04-28_15h42.09.368,subsecond_timing_v2,2021.1.2,Win32,59.96282305
space,0.86026,space,1.00987,,,ms_small,0,159,159,159,1,0.953,0.2,False,None,T05,r1,2021-04-28_15h42.09.368,subsecond_timing_v2,2021.1.2,Win32,59.96282305
space,0.8586,space,0.97783,,,ms_small,0,160,160,160,1,0.812,0.2,False,None,T05,r1,2021-04-28_15h42.09.368,subsecond_timing_v2,2021.1.2,Win32,59.96282305
space,0.601225,space,0.6847,,,ms_small,0,161,161,161,1,0.67,0.1,False,None,T05,r1,2021-04-28_15h42.09.368,subsecond_timing_v2,2021.1.2,Win32,59.96282305
space,0.6278,space,1.02432,,,ms_small,0,162,162,162,1,0.953,0.1,False,None,T05,r1,2021-04-28_15h42.09.368,subsecond_timing_v2,2021.1.2,Win32,59.96282305
space,0.85511,space,0.957735,,,ms_small,0,163,163,163,1,0.882,0.3,False,None,T05,r1,2021-04-28_15h42.09.368,subsecond_timing_v2,2021.1.2,Win32,59.96282305
space,0.669845,space,0.90111,,,ms_small,0,164,164,164,1,0.988,0.1,False,None,T05,r1,2021-04-28_15h42.09.368,subsecond_timing_v2,2021.1.2,Win32,59.96282305
space,0.68825,space,0.870405,,,ms_small,0,165,165,165,1,0.706,0.1,False,None,T05,r1,2021-04-28_15h42.09.368,subsecond_timing_v2,2021.1.2,Win32,59.96282305
space,0.50143,space,1.20722,,,ms_small,0,166,166,166,1,1.024,0.3,False,None,T05,r1,2021-04-28_15h42.09.368,subsecond_timing_v2,2021.1.2,Win32,59.96282305
space,0.502025,space,0.79191,,,ms_small,0,167,167,167,1,0.847,0.3,False,None,T05,r1,2021-04-28_15h42.09.368,subsecond_timing_v2,2021.1.2,Win32,59.96282305
space,0.625355,space,0.89646,,,ms_small,0,168,168,168,1,0.741,0.3,False,None,T05,r1,2021-04-28_15h42.09.368,subsecond_timing_v2,2021.1.2,Win32,59.96282305
space,0.57825,space,0.957275,,,ms_small,0,169,169,169,1,0.918,0.2,False,None,T05,r1,2021-04-28_15h42.09.368,subsecond_timing_v2,2021.1.2,Win32,59.96282305
space,0.54258,space,1.024805,,,ms_small,0,170,170,170,1,0.776,0.1,False,None,T05,r1,2021-04-28_15h42.09.368,subsecond_timing_v2,2021.1.2,Win32,59.96282305
space,0.551265,space,0.896555,,,ms_small,0,171,171,171,1,0.882,0.3,False,None,T05,r1,2021-04-28_15h42.09.368,subsecond_timing_v2,2021.1.2,Win32,59.96282305
space,0.43503,space,0.78552,,,ms_small,0,172,172,172,1,0.741,0.1,False,None,T05,r1,2021-04-28_15h42.09.368,subsecond_timing_v2,2021.1.2,Win32,59.96282305
space,0.518045,space,0.918245,,,ms_small,0,173,173,173,1,0.988,0.1,False,None,T05,r1,2021-04-28_15h42.09.368,subsecond_timing_v2,2021.1.2,Win32,59.96282305
space,0.584535,space,1.24041,,,ms_small,0,174,174,174,1,0.706,0.2,False,None,T05,r1,2021-04-28_15h42.09.368,subsecond_timing_v2,2021.1.2,Win32,59.96282305
space,0.700695,space,1.075055,,,ms_small,0,175,175,175,1,0.918,0.2,False,None,T05,r1,2021-04-28_15h42.09.368,subsecond_timing_v2,2021.1.2,Win32,59.96282305
space,0.710675,space,1.15526,,,ms_small,0,176,176,176,1,0.953,0.2,False,None,T05,r1,2021-04-28_15h42.09.368,subsecond_timing_v2,2021.1.2,Win32,59.96282305
space,0.623845,space,1.329175,,,ms_small,0,177,177,177,1,0.67,0.2,False,None,T05,r1,2021-04-28_15h42.09.368,subsecond_timing_v2,2021.1.2,Win32,59.96282305
space,0.418605,space,1.25044,,,ms_small,0,178,178,178,1,0.847,0.3,False,None,T05,r1,2021-04-28_15h42.09.368,subsecond_timing_v2,2021.1.2,Win32,59.96282305
space,0.72312,space,1.296995,,,ms_small,0,179,179,179,1,0.776,0.1,False,None,T05,r1,2021-04-28_15h42.09.368,subsecond_timing_v2,2021.1.2,Win32,59.96282305
space,0.958735,space,1.369045,,,ms_small,0,180,180,180,1,0.812,0.1,False,None,T05,r1,2021-04-28_15h42.09.368,subsecond_timing_v2,2021.1.2,Win32,59.96282305
space,0.75626,space,1.635755,,,ms_small,0,181,181,181,1,1.024,0.2,False,None,T05,r1,2021-04-28_15h42.09.368,subsecond_timing_v2,2021.1.2,Win32,59.96282305
space,0.641925,space,1.038645,,,ms_small,0,182,182,182,1,0.706,0.3,False,None,T05,r1,2021-04-28_15h42.09.368,subsecond_timing_v2,2021.1.2,Win32,59.96282305
space,0.685085,space,0.82135,,,ms_small,0,183,183,183,1,0.988,0.1,False,None,T05,r1,2021-04-28_15h42.09.368,subsecond_timing_v2,2021.1.2,Win32,59.96282305
space,0.70838,space,1.346285,,,ms_small,0,184,184,184,1,1.024,0.3,False,None,T05,r1,2021-04-28_15h42.09.368,subsecond_timing_v2,2021.1.2,Win32,59.96282305
space,0.975825,space,0.867895,,,ms_small,0,185,185,185,1,0.847,0.1,False,None,T05,r1,2021-04-28_15h42.09.368,subsecond_timing_v2,2021.1.2,Win32,59.96282305
space,0.98601,space,0.8016,,,ms_small,0,186,186,186,1,0.741,0.1,False,None,T05,r1,2021-04-28_15h42.09.368,subsecond_timing_v2,2021.1.2,Win32,59.96282305
space,0.95983,space,0.94372,,,ms_small,0,187,187,187,1,0.776,0.3,False,None,T05,r1,2021-04-28_15h42.09.368,subsecond_timing_v2,2021.1.2,Win32,59.96282305
space,1.035475,space,1.05175,,,ms_small,0,188,188,188,1,0.812,0.3,False,None,T05,r1,2021-04-28_15h42.09.368,subsecond_timing_v2,2021.1.2,Win32,59.96282305
space,0.93491,space,1.46257,,,ms_small,0,189,189,189,1,0.918,0.3,False,None,T05,r1,2021-04-28_15h42.09.368,subsecond_timing_v2,2021.1.2,Win32,59.96282305
space,0.617925,space,0.927935,,,ms_small,0,190,190,190,1,0.67,0.1,False,None,T05,r1,2021-04-28_15h42.09.368,subsecond_timing_v2,2021.1.2,Win32,59.96282305
space,0.59228,space,1.09725,,,ms_small,0,191,191,191,1,0.882,0.2,False,None,T05,r1,2021-04-28_15h42.09.368,subsecond_timing_v2,2021.1.2,Win32,59.96282305
space,0.51074,space,0.87532,,,ms_small,0,192,192,192,1,0.953,0.1,False,None,T05,r1,2021-04-28_15h42.09.368,subsecond_timing_v2,2021.1.2,Win32,59.96282305
space,0.67967,space,0.94349,,,ms_small,0,193,193,193,1,0.776,0.1,False,None,T05,r1,2021-04-28_15h42.09.368,subsecond_timing_v2,2021.1.2,Win32,59.96282305
space,0.907695,space,1.372765,,,ms_small,0,194,194,194,1,0.988,0.3,False,None,T05,r1,2021-04-28_15h42.09.368,subsecond_timing_v2,2021.1.2,Win32,59.96282305
space,0.613535,space,1.07119,,,ms_small,0,195,195,195,1,0.953,0.1,False,None,T05,r1,2021-04-28_15h42.09.368,subsecond_timing_v2,2021.1.2,Win32,59.96282305
space,0.86837,space,0.791195,,,ms_small,0,196,196,196,1,0.741,0.3,False,None,T05,r1,2021-04-28_15h42.09.368,subsecond_timing_v2,2021.1.2,Win32,59.96282305
space,0.72474,space,1.373225,,,ms_small,0,197,197,197,1,0.67,0.3,False,None,T05,r1,2021-04-28_15h42.09.368,subsecond_timing_v2,2021.1.2,Win32,59.96282305
space,0.852545,space,1.19365,,,ms_small,0,198,198,198,1,0.847,0.3,False,None,T05,r1,2021-04-28_15h42.09.368,subsecond_timing_v2,2021.1.2,Win32,59.96282305
space,0.7397,space,1.4627,,,ms_small,0,199,199,199,1,0.882,0.2,False,None,T05,r1,2021-04-28_15h42.09.368,subsecond_timing_v2,2021.1.2,Win32,59.96282305
space,0.622855,space,1.23514,,,ms_small,0,200,200,200,1,0.706,0.3,False,None,T05,r1,2021-04-28_15h42.09.368,subsecond_timing_v2,2021.1.2,Win32,59.96282305
space,0.70152,space,1.21892,,,ms_small,0,201,201,201,1,0.812,0.1,False,None,T05,r1,2021-04-28_15h42.09.368,subsecond_timing_v2,2021.1.2,Win32,59.96282305
space,0.67216,space,1.08521,,,ms_small,0,202,202,202,1,1.024,0.2,False,None,T05,r1,2021-04-28_15h42.09.368,subsecond_timing_v2,2021.1.2,Win32,59.96282305
space,0.8203,space,1.02384,,,ms_small,0,203,203,203,1,0.918,0.1,False,None,T05,r1,2021-04-28_15h42.09.368,subsecond_timing_v2,2021.1.2,Win32,59.96282305
space,0.608585,space,1.69118,,,ms_small,0,204,204,204,1,0.776,0.2,False,None,T05,r1,2021-04-28_15h42.09.368,subsecond_timing_v2,2021.1.2,Win32,59.96282305
space,0.30556,space,0.784885,,,ms_small,0,205,205,205,1,0.67,0.1,False,None,T05,r1,2021-04-28_15h42.09.368,subsecond_timing_v2,2021.1.2,Win32,59.96282305
space,0.385535,space,1.251715,,,ms_small,0,206,206,206,1,0.706,0.3,False,None,T05,r1,2021-04-28_15h42.09.368,subsecond_timing_v2,2021.1.2,Win32,59.96282305
space,0.451525,space,1.108605,,,ms_small,0,207,207,207,1,0.988,0.2,False,None,T05,r1,2021-04-28_15h42.09.368,subsecond_timing_v2,2021.1.2,Win32,59.96282305
space,0.421225,space,0.82343,,,ms_small,0,208,208,208,1,0.847,0.3,False,None,T05,r1,2021-04-28_15h42.09.368,subsecond_timing_v2,2021.1.2,Win32,59.96282305
space,0.911775,space,0.91853,,,ms_small,0,209,209,209,1,0.953,0.2,False,None,T05,r1,2021-04-28_15h42.09.368,subsecond_timing_v2,2021.1.2,Win32,59.96282305
space,0.76955,space,0.77538,,,ms_small,0,210,210,210,1,0.812,0.1,False,None,T05,r1,2021-04-28_15h42.09.368,subsecond_timing_v2,2021.1.2,Win32,59.96282305
space,0.844125,space,0.858695,,,ms_small,0,211,211,211,1,0.918,0.1,False,None,T05,r1,2021-04-28_15h42.09.368,subsecond_timing_v2,2021.1.2,Win32,59.96282305
space,1.176215,space,0.791085,,,ms_small,0,212,212,212,1,0.741,0.3,False,None,T05,r1,2021-04-28_15h42.09.368,subsecond_timing_v2,2021.1.2,Win32,59.96282305
space,0.958655,space,0.871645,,,ms_small,0,213,213,213,1,0.882,0.3,False,None,T05,r1,2021-04-28_15h42.09.368,subsecond_timing_v2,2021.1.2,Win32,59.96282305
space,0.83455,space,0.743,,,ms_small,0,214,214,214,1,1.024,0.1,False,None,T05,r1,2021-04-28_15h42.09.368,subsecond_timing_v2,2021.1.2,Win32,59.96282305
space,0.85123,space,0.97485,,,ms_small,0,215,215,215,1,1.024,0.2,False,None,T05,r1,2021-04-28_15h42.09.368,subsecond_timing_v2,2021.1.2,Win32,59.96282305
space,1.045305,space,1.44452,,,ms_small,0,216,216,216,1,0.706,0.2,False,None,T05,r1,2021-04-28_15h42.09.368,subsecond_timing_v2,2021.1.2,Win32,59.96282305
space,0.96013,space,1.252665,,,ms_small,0,217,217,217,1,0.882,0.1,False,None,T05,r1,2021-04-28_15h42.09.368,subsecond_timing_v2,2021.1.2,Win32,59.96282305
space,1.002175,space,1.334965,,,ms_small,0,218,218,218,1,0.776,0.2,False,None,T05,r1,2021-04-28_15h42.09.368,subsecond_timing_v2,2021.1.2,Win32,59.96282305
space,0.81249,space,1.40836,,,ms_small,0,219,219,219,1,0.847,0.2,False,None,T05,r1,2021-04-28_15h42.09.368,subsecond_timing_v2,2021.1.2,Win32,59.96282305
space,0.83528,space,1.246935,,,ms_small,0,220,220,220,1,0.812,0.1,False,None,T05,r1,2021-04-28_15h42.09.368,subsecond_timing_v2,2021.1.2,Win32,59.96282305
space,0.67695,space,1.22335,,,ms_small,0,221,221,221,1,0.988,0.1,False,None,T05,r1,2021-04-28_15h42.09.368,subsecond_timing_v2,2021.1.2,Win32,59.96282305
space,0.829865,space,1.256325,,,ms_small,0,222,222,222,1,0.918,0.1,False,None,T05,r1,2021-04-28_15h42.09.368,subsecond_timing_v2,2021.1.2,Win32,59.96282305
space,0.867855,space,1.190845,,,ms_small,0,223,223,223,1,0.67,0.2,False,None,T05,r1,2021-04-28_15h42.09.368,subsecond_timing_v2,2021.1.2,Win32,59.96282305
space,0.41713,space,1.026765,,,ms_small,0,224,224,224,1,0.741,0.3,False,None,T05,r1,2021-04-28_15h42.09.368,subsecond_timing_v2,2021.1.2,Win32,59.96282305
space,0.48441,space,1.11203,,,ms_small,0,225,225,225,1,0.953,0.1,False,None,T05,r1,2021-04-28_15h42.09.368,subsecond_timing_v2,2021.1.2,Win32,59.96282305
