key_resp_start.keys,key_resp_start.rt,key_resp_stop.keys,key_resp_stop.rt,feedback_range,hit,stimulus_range,trials.thisRepN,trials.thisTrialN,trials.thisN,trials.thisIndex,trials.ran,stimulus_duration,onset,feedback,feedback_range_fromfile,participant,session,date,expName,psychopyVersion,OS,frameRate
space,1.035485,space,1.005875,0.3,TRUE,Training,0,0,0,0,1,1,0.2,True,0.3,T05,r2,2021-04-28_15h56.44.534,subsecond_timing_v2,2021.1.2,Win32,59.84082341
space,0.75169,space,0.851665,0.3,TRUE,Training,0,1,1,1,1,0.75,0.2,True,0.3,T05,r2,2021-04-28_15h56.44.534,subsecond_timing_v2,2021.1.2,Win32,59.84082341
space,0.82999,space,0.601365,0.3,TRUE,Training,0,2,2,2,1,0.5,0.2,True,0.3,T05,r2,2021-04-28_15h56.44.534,subsecond_timing_v2,2021.1.2,Win32,59.84082341
space,0.72191,space,0.868195,0.3,FALSE,Training,0,3,3,3,1,0.5,0.3,True,0.3,T05,r2,2021-04-28_15h56.44.534,subsecond_timing_v2,2021.1.2,Win32,59.84082341
space,0.81834,space,0.851565,0.3,TRUE,Training,0,4,4,4,1,0.75,0.3,True,0.3,T05,r2,2021-04-28_15h56.44.534,subsecond_timing_v2,2021.1.2,Win32,59.84082341
space,0.767665,space,0.93503,0.3,TRUE,Training,0,5,5,5,1,1,0.3,True,0.3,T05,r2,2021-04-28_15h56.44.534,subsecond_timing_v2,2021.1.2,Win32,59.84082341
space,0.834625,space,1.068815,,,ms_large,0,6,6,6,1,1.165,0.2,False,None,T05,r2,2021-04-28_15h56.44.534,subsecond_timing_v2,2021.1.2,Win32,59.84082341
space,0.668555,space,1.20195,,,ms_large,0,7,7,7,1,1.094,0.3,False,None,T05,r2,2021-04-28_15h56.44.534,subsecond_timing_v2,2021.1.2,Win32,59.84082341
space,1.192725,space,1.161515,,,ms_large,0,8,8,8,1,1.2,0.3,False,None,T05,r2,2021-04-28_15h56.44.534,subsecond_timing_v2,2021.1.2,Win32,59.84082341
space,0.425205,space,1.171825,,,ms_large,0,9,9,9,1,1.024,0.1,False,None,T05,r2,2021-04-28_15h56.44.534,subsecond_timing_v2,2021.1.2,Win32,59.84082341
space,1.078145,space,1.138575,,,ms_large,0,10,10,10,1,0.953,0.3,False,None,T05,r2,2021-04-28_15h56.44.534,subsecond_timing_v2,2021.1.2,Win32,59.84082341
space,1.174045,space,1.135275,,,ms_large,0,11,11,11,1,0.847,0.1,False,None,T05,r2,2021-04-28_15h56.44.534,subsecond_timing_v2,2021.1.2,Win32,59.84082341
space,1.171485,space,1.068355,,,ms_large,0,12,12,12,1,0.882,0.3,False,None,T05,r2,2021-04-28_15h56.44.534,subsecond_timing_v2,2021.1.2,Win32,59.84082341
space,1.057045,space,1.21792,,,ms_large,0,13,13,13,1,1.129,0.1,False,None,T05,r2,2021-04-28_15h56.44.534,subsecond_timing_v2,2021.1.2,Win32,59.84082341
space,0.750695,space,1.258715,,,ms_large,0,14,14,14,1,1.059,0.3,False,None,T05,r2,2021-04-28_15h56.44.534,subsecond_timing_v2,2021.1.2,Win32,59.84082341
space,1.013145,space,1.01906,,,ms_large,0,15,15,15,1,0.918,0.3,False,None,T05,r2,2021-04-28_15h56.44.534,subsecond_timing_v2,2021.1.2,Win32,59.84082341
space,0.20143,space,0.92912,,,ms_large,0,16,16,16,1,0.988,0.1,False,None,T05,r2,2021-04-28_15h56.44.534,subsecond_timing_v2,2021.1.2,Win32,59.84082341
space,1.452015,space,1.003405,,,ms_large,0,17,17,17,1,0.953,0.2,False,None,T05,r2,2021-04-28_15h56.44.534,subsecond_timing_v2,2021.1.2,Win32,59.84082341
space,0.79541,space,1.05582,,,ms_large,0,18,18,18,1,1.129,0.3,False,None,T05,r2,2021-04-28_15h56.44.534,subsecond_timing_v2,2021.1.2,Win32,59.84082341
space,0.838125,space,1.01788,,,ms_large,0,19,19,19,1,0.988,0.2,False,None,T05,r2,2021-04-28_15h56.44.534,subsecond_timing_v2,2021.1.2,Win32,59.84082341
space,1.056315,space,0.97408,,,ms_large,0,20,20,20,1,1.024,0.1,False,None,T05,r2,2021-04-28_15h56.44.534,subsecond_timing_v2,2021.1.2,Win32,59.84082341
space,0.891265,space,0.94673,,,ms_large,0,21,21,21,1,1.165,0.1,False,None,T05,r2,2021-04-28_15h56.44.534,subsecond_timing_v2,2021.1.2,Win32,59.84082341
space,0.9177,space,1.293395,,,ms_large,0,22,22,22,1,1.2,0.1,False,None,T05,r2,2021-04-28_15h56.44.534,subsecond_timing_v2,2021.1.2,Win32,59.84082341
space,2.135935,space,0.957625,,,ms_large,0,23,23,23,1,0.882,0.2,False,None,T05,r2,2021-04-28_15h56.44.534,subsecond_timing_v2,2021.1.2,Win32,59.84082341
space,0.97555,space,0.84229,,,ms_large,0,24,24,24,1,0.847,0.3,False,None,T05,r2,2021-04-28_15h56.44.534,subsecond_timing_v2,2021.1.2,Win32,59.84082341
space,1.29376,space,1.37056,,,ms_large,0,25,25,25,1,1.094,0.1,False,None,T05,r2,2021-04-28_15h56.44.534,subsecond_timing_v2,2021.1.2,Win32,59.84082341
space,1.034955,space,0.91825,,,ms_large,0,26,26,26,1,1.059,0.1,False,None,T05,r2,2021-04-28_15h56.44.534,subsecond_timing_v2,2021.1.2,Win32,59.84082341
space,1.14116,space,1.01404,,,ms_large,0,27,27,27,1,0.918,0.3,False,None,T05,r2,2021-04-28_15h56.44.534,subsecond_timing_v2,2021.1.2,Win32,59.84082341
space,1.12822,space,0.992055,,,ms_large,0,28,28,28,1,0.988,0.2,False,None,T05,r2,2021-04-28_15h56.44.534,subsecond_timing_v2,2021.1.2,Win32,59.84082341
space,0.905895,space,1.02091,,,ms_large,0,29,29,29,1,1.165,0.2,False,None,T05,r2,2021-04-28_15h56.44.534,subsecond_timing_v2,2021.1.2,Win32,59.84082341
space,0.173115,space,1.301725,,,ms_large,0,30,30,30,1,1.129,0.1,False,None,T05,r2,2021-04-28_15h56.44.534,subsecond_timing_v2,2021.1.2,Win32,59.84082341
space,1.12099,space,1.078915,,,ms_large,0,31,31,31,1,1.059,0.1,False,None,T05,r2,2021-04-28_15h56.44.534,subsecond_timing_v2,2021.1.2,Win32,59.84082341
space,1.068295,space,1.00199,,,ms_large,0,32,32,32,1,0.918,0.3,False,None,T05,r2,2021-04-28_15h56.44.534,subsecond_timing_v2,2021.1.2,Win32,59.84082341
space,0.07522,space,1.671715,,,ms_large,0,33,33,33,1,1.2,0.3,False,None,T05,r2,2021-04-28_15h56.44.534,subsecond_timing_v2,2021.1.2,Win32,59.84082341
space,1.35775,space,0.696265,,,ms_large,0,34,34,34,1,0.847,0.1,False,None,T05,r2,2021-04-28_15h56.44.534,subsecond_timing_v2,2021.1.2,Win32,59.84082341
space,1.071145,space,0.77886,,,ms_large,0,35,35,35,1,1.024,0.1,False,None,T05,r2,2021-04-28_15h56.44.534,subsecond_timing_v2,2021.1.2,Win32,59.84082341
space,1.33698,space,0.850695,,,ms_large,0,36,36,36,1,0.882,0.1,False,None,T05,r2,2021-04-28_15h56.44.534,subsecond_timing_v2,2021.1.2,Win32,59.84082341
space,2.43589,space,0.77591,,,ms_large,0,37,37,37,1,1.094,0.2,False,None,T05,r2,2021-04-28_15h56.44.534,subsecond_timing_v2,2021.1.2,Win32,59.84082341
space,1.40186,space,1.158705,,,ms_large,0,38,38,38,1,0.953,0.1,False,None,T05,r2,2021-04-28_15h56.44.534,subsecond_timing_v2,2021.1.2,Win32,59.84082341
space,0.468895,space,1.72635,,,ms_large,0,39,39,39,1,1.165,0.2,False,None,T05,r2,2021-04-28_15h56.44.534,subsecond_timing_v2,2021.1.2,Win32,59.84082341
space,0.432255,space,1.40938,,,ms_large,0,40,40,40,1,0.953,0.1,False,None,T05,r2,2021-04-28_15h56.44.534,subsecond_timing_v2,2021.1.2,Win32,59.84082341
space,0.62999,space,1.16884,,,ms_large,0,41,41,41,1,0.988,0.1,False,None,T05,r2,2021-04-28_15h56.44.534,subsecond_timing_v2,2021.1.2,Win32,59.84082341
space,0.472015,space,1.13727,,,ms_large,0,42,42,42,1,1.094,0.1,False,None,T05,r2,2021-04-28_15h56.44.534,subsecond_timing_v2,2021.1.2,Win32,59.84082341
space,0.67565,space,1.45456,,,ms_large,0,43,43,43,1,1.129,0.3,False,None,T05,r2,2021-04-28_15h56.44.534,subsecond_timing_v2,2021.1.2,Win32,59.84082341
space,0.534915,space,1.31592,,,ms_large,0,44,44,44,1,0.882,0.2,False,None,T05,r2,2021-04-28_15h56.44.534,subsecond_timing_v2,2021.1.2,Win32,59.84082341
space,0.458735,space,1.49485,,,ms_large,0,45,45,45,1,1.2,0.1,False,None,T05,r2,2021-04-28_15h56.44.534,subsecond_timing_v2,2021.1.2,Win32,59.84082341
space,0.452805,space,1.339235,,,ms_large,0,46,46,46,1,1.024,0.1,False,None,T05,r2,2021-04-28_15h56.44.534,subsecond_timing_v2,2021.1.2,Win32,59.84082341
space,0.53725,space,1.33253,,,ms_large,0,47,47,47,1,0.918,0.2,False,None,T05,r2,2021-04-28_15h56.44.534,subsecond_timing_v2,2021.1.2,Win32,59.84082341
space,1.297225,space,1.87056,,,ms_large,0,48,48,48,1,0.847,0.1,False,None,T05,r2,2021-04-28_15h56.44.534,subsecond_timing_v2,2021.1.2,Win32,59.84082341
space,0.32314,space,1.6349,,,ms_large,0,49,49,49,1,1.059,0.3,False,None,T05,r2,2021-04-28_15h56.44.534,subsecond_timing_v2,2021.1.2,Win32,59.84082341
space,0.70578,space,1.349225,,,ms_large,0,50,50,50,1,0.953,0.2,False,None,T05,r2,2021-04-28_15h56.44.534,subsecond_timing_v2,2021.1.2,Win32,59.84082341
space,0.501765,space,1.35755,,,ms_large,0,51,51,51,1,1.024,0.3,False,None,T05,r2,2021-04-28_15h56.44.534,subsecond_timing_v2,2021.1.2,Win32,59.84082341
space,0.53805,space,1.379845,,,ms_large,0,52,52,52,1,1.165,0.3,False,None,T05,r2,2021-04-28_15h56.44.534,subsecond_timing_v2,2021.1.2,Win32,59.84082341
space,0.53445,space,0.78328,,,ms_large,0,53,53,53,1,0.847,0.3,False,None,T05,r2,2021-04-28_15h56.44.534,subsecond_timing_v2,2021.1.2,Win32,59.84082341
space,0.708595,space,1.38746,,,ms_large,0,54,54,54,1,1.2,0.1,False,None,T05,r2,2021-04-28_15h56.44.534,subsecond_timing_v2,2021.1.2,Win32,59.84082341
space,0.617715,space,1.50178,,,ms_large,0,55,55,55,1,0.988,0.3,False,None,T05,r2,2021-04-28_15h56.44.534,subsecond_timing_v2,2021.1.2,Win32,59.84082341
space,0.72475,space,1.585425,,,ms_large,0,56,56,56,1,0.882,0.1,False,None,T05,r2,2021-04-28_15h56.44.534,subsecond_timing_v2,2021.1.2,Win32,59.84082341
space,0.472165,space,1.37801,,,ms_large,0,57,57,57,1,1.059,0.1,False,None,T05,r2,2021-04-28_15h56.44.534,subsecond_timing_v2,2021.1.2,Win32,59.84082341
space,0.45382,space,1.323495,,,ms_large,0,58,58,58,1,1.094,0.1,False,None,T05,r2,2021-04-28_15h56.44.534,subsecond_timing_v2,2021.1.2,Win32,59.84082341
space,0.42133,space,1.482405,,,ms_large,0,59,59,59,1,1.129,0.3,False,None,T05,r2,2021-04-28_15h56.44.534,subsecond_timing_v2,2021.1.2,Win32,59.84082341
space,0.5541,space,1.633265,,,ms_large,0,60,60,60,1,0.918,0.3,False,None,T05,r2,2021-04-28_15h56.44.534,subsecond_timing_v2,2021.1.2,Win32,59.84082341
space,0.343175,space,1.66129,,,ms_large,0,61,61,61,1,1.129,0.1,False,None,T05,r2,2021-04-28_15h56.44.534,subsecond_timing_v2,2021.1.2,Win32,59.84082341
space,0.64687,space,1.440035,,,ms_large,0,62,62,62,1,1.165,0.3,False,None,T05,r2,2021-04-28_15h56.44.534,subsecond_timing_v2,2021.1.2,Win32,59.84082341
space,0.760005,space,1.00833,,,ms_large,0,63,63,63,1,0.953,0.2,False,None,T05,r2,2021-04-28_15h56.44.534,subsecond_timing_v2,2021.1.2,Win32,59.84082341
space,0.71835,space,1.07186,,,ms_large,0,64,64,64,1,1.094,0.2,False,None,T05,r2,2021-04-28_15h56.44.534,subsecond_timing_v2,2021.1.2,Win32,59.84082341
space,0.50516,space,0.98898,,,ms_large,0,65,65,65,1,0.882,0.1,False,None,T05,r2,2021-04-28_15h56.44.534,subsecond_timing_v2,2021.1.2,Win32,59.84082341
space,0.90199,space,1.06811,,,ms_large,0,66,66,66,1,0.918,0.2,False,None,T05,r2,2021-04-28_15h56.44.534,subsecond_timing_v2,2021.1.2,Win32,59.84082341
space,0.6916,space,1.156725,,,ms_large,0,67,67,67,1,0.988,0.1,False,None,T05,r2,2021-04-28_15h56.44.534,subsecond_timing_v2,2021.1.2,Win32,59.84082341
space,0.721715,space,1.11078,,,ms_large,0,68,68,68,1,1.024,0.1,False,None,T05,r2,2021-04-28_15h56.44.534,subsecond_timing_v2,2021.1.2,Win32,59.84082341
space,0.637675,space,1.10224,,,ms_large,0,69,69,69,1,1.2,0.1,False,None,T05,r2,2021-04-28_15h56.44.534,subsecond_timing_v2,2021.1.2,Win32,59.84082341
space,1.020125,space,1.2681,,,ms_large,0,70,70,70,1,1.059,0.1,False,None,T05,r2,2021-04-28_15h56.44.534,subsecond_timing_v2,2021.1.2,Win32,59.84082341
space,0.490205,space,0.95946,,,ms_large,0,71,71,71,1,0.847,0.1,False,None,T05,r2,2021-04-28_15h56.44.534,subsecond_timing_v2,2021.1.2,Win32,59.84082341
space,0.451365,space,1.018505,,,ms_large,0,72,72,72,1,1.094,0.2,False,None,T05,r2,2021-04-28_15h56.44.534,subsecond_timing_v2,2021.1.2,Win32,59.84082341
space,0.91766,space,0.91828,,,ms_large,0,73,73,73,1,0.918,0.3,False,None,T05,r2,2021-04-28_15h56.44.534,subsecond_timing_v2,2021.1.2,Win32,59.84082341
space,0.40881,space,1.385725,,,ms_large,0,74,74,74,1,0.953,0.2,False,None,T05,r2,2021-04-28_15h56.44.534,subsecond_timing_v2,2021.1.2,Win32,59.84082341
space,0.8302,space,1.02067,,,ms_large,0,76,76,76,1,0.988,0.3,False,None,T05,r2,2021-04-28_15h56.44.534,subsecond_timing_v2,2021.1.2,Win32,59.84082341
space,0.756425,space,1.182405,,,ms_large,0,77,77,77,1,1.2,0.1,False,None,T05,r2,2021-04-28_15h56.44.534,subsecond_timing_v2,2021.1.2,Win32,59.84082341
space,0.90605,space,1.149595,,,ms_large,0,78,78,78,1,1.024,0.2,False,None,T05,r2,2021-04-28_15h56.44.534,subsecond_timing_v2,2021.1.2,Win32,59.84082341
space,0.718265,space,1.06831,,,ms_large,0,79,79,79,1,1.129,0.1,False,None,T05,r2,2021-04-28_15h56.44.534,subsecond_timing_v2,2021.1.2,Win32,59.84082341
space,0.590345,space,1.311585,,,ms_large,0,80,80,80,1,1.165,0.3,False,None,T05,r2,2021-04-28_15h56.44.534,subsecond_timing_v2,2021.1.2,Win32,59.84082341
space,0.601925,space,1.32918,,,ms_large,0,81,81,81,1,1.059,0.2,False,None,T05,r2,2021-04-28_15h56.44.534,subsecond_timing_v2,2021.1.2,Win32,59.84082341
space,0.67218,space,1.10325,,,ms_large,0,82,82,82,1,0.847,0.1,False,None,T05,r2,2021-04-28_15h56.44.534,subsecond_timing_v2,2021.1.2,Win32,59.84082341
space,0.75914,space,1.0085,,,ms_large,0,83,83,83,1,1.024,0.1,False,None,T05,r2,2021-04-28_15h56.44.534,subsecond_timing_v2,2021.1.2,Win32,59.84082341
space,0.872675,space,1.360195,,,ms_large,0,84,84,84,1,1.059,0.3,False,None,T05,r2,2021-04-28_15h56.44.534,subsecond_timing_v2,2021.1.2,Win32,59.84082341
space,0.360285,space,0.907,,,ms_large,0,85,85,85,1,0.918,0.1,False,None,T05,r2,2021-04-28_15h56.44.534,subsecond_timing_v2,2021.1.2,Win32,59.84082341
space,0.463205,space,0.988735,,,ms_large,0,86,86,86,1,1.165,0.1,False,None,T05,r2,2021-04-28_15h56.44.534,subsecond_timing_v2,2021.1.2,Win32,59.84082341
space,0.63779,space,1.036905,,,ms_large,0,87,87,87,1,0.953,0.1,False,None,T05,r2,2021-04-28_15h56.44.534,subsecond_timing_v2,2021.1.2,Win32,59.84082341
space,0.75419,space,1.109975,,,ms_large,0,88,88,88,1,0.882,0.1,False,None,T05,r2,2021-04-28_15h56.44.534,subsecond_timing_v2,2021.1.2,Win32,59.84082341
space,0.723795,space,1.10204,,,ms_large,0,89,89,89,1,0.847,0.1,False,None,T05,r2,2021-04-28_15h56.44.534,subsecond_timing_v2,2021.1.2,Win32,59.84082341
space,0.84695,space,1.135245,,,ms_large,0,90,90,90,1,1.094,0.1,False,None,T05,r2,2021-04-28_15h56.44.534,subsecond_timing_v2,2021.1.2,Win32,59.84082341
space,0.75327,space,1.52464,,,ms_large,0,91,91,91,1,1.129,0.2,False,None,T05,r2,2021-04-28_15h56.44.534,subsecond_timing_v2,2021.1.2,Win32,59.84082341
space,0.24104,space,1.21797,,,ms_large,0,92,92,92,1,1.2,0.1,False,None,T05,r2,2021-04-28_15h56.44.534,subsecond_timing_v2,2021.1.2,Win32,59.84082341
space,0.718545,space,1.170525,,,ms_large,0,93,93,93,1,0.988,0.1,False,None,T05,r2,2021-04-28_15h56.44.534,subsecond_timing_v2,2021.1.2,Win32,59.84082341
space,0.537365,space,1.433005,,,ms_large,0,94,94,94,1,1.129,0.3,False,None,T05,r2,2021-04-28_15h56.44.534,subsecond_timing_v2,2021.1.2,Win32,59.84082341
space,0.597145,space,1.18516,,,ms_large,0,95,95,95,1,1.165,0.2,False,None,T05,r2,2021-04-28_15h56.44.534,subsecond_timing_v2,2021.1.2,Win32,59.84082341
space,0.874315,space,1.09019,,,ms_large,0,96,96,96,1,1.024,0.3,False,None,T05,r2,2021-04-28_15h56.44.534,subsecond_timing_v2,2021.1.2,Win32,59.84082341
space,0.58759,space,1.15177,,,ms_large,0,97,97,97,1,1.094,0.1,False,None,T05,r2,2021-04-28_15h56.44.534,subsecond_timing_v2,2021.1.2,Win32,59.84082341
space,0.751355,space,1.391035,,,ms_large,0,98,98,98,1,1.059,0.2,False,None,T05,r2,2021-04-28_15h56.44.534,subsecond_timing_v2,2021.1.2,Win32,59.84082341
space,0.56765,space,1.123365,,,ms_large,0,99,99,99,1,1.2,0.1,False,None,T05,r2,2021-04-28_15h56.44.534,subsecond_timing_v2,2021.1.2,Win32,59.84082341
space,0.82916,space,1.266255,,,ms_large,0,100,100,100,1,0.882,0.3,False,None,T05,r2,2021-04-28_15h56.44.534,subsecond_timing_v2,2021.1.2,Win32,59.84082341
space,0.873895,space,1.551895,,,ms_large,0,101,101,101,1,0.918,0.3,False,None,T05,r2,2021-04-28_15h56.44.534,subsecond_timing_v2,2021.1.2,Win32,59.84082341
space,0.92806,space,1.143645,,,ms_large,0,102,102,102,1,0.988,0.3,False,None,T05,r2,2021-04-28_15h56.44.534,subsecond_timing_v2,2021.1.2,Win32,59.84082341
space,0.60723,space,1.67316,,,ms_large,0,103,103,103,1,0.847,0.1,False,None,T05,r2,2021-04-28_15h56.44.534,subsecond_timing_v2,2021.1.2,Win32,59.84082341
space,0.75708,space,2.121455,,,ms_large,0,104,104,104,1,0.953,0.3,False,None,T05,r2,2021-04-28_15h56.44.534,subsecond_timing_v2,2021.1.2,Win32,59.84082341
space,0.98841,space,1.784895,,,ms_large,0,105,105,105,1,0.847,0.3,False,None,T05,r2,2021-04-28_15h56.44.534,subsecond_timing_v2,2021.1.2,Win32,59.84082341
space,0.574785,space,1.10606,,,ms_large,0,106,106,106,1,1.094,0.3,False,None,T05,r2,2021-04-28_15h56.44.534,subsecond_timing_v2,2021.1.2,Win32,59.84082341
space,0.495475,space,1.186755,,,ms_large,0,107,107,107,1,1.129,0.3,False,None,T05,r2,2021-04-28_15h56.44.534,subsecond_timing_v2,2021.1.2,Win32,59.84082341
space,0.52383,space,1.3585,,,ms_large,0,108,108,108,1,0.882,0.3,False,None,T05,r2,2021-04-28_15h56.44.534,subsecond_timing_v2,2021.1.2,Win32,59.84082341
space,0.70112,space,1.462095,,,ms_large,0,109,109,109,1,0.953,0.2,False,None,T05,r2,2021-04-28_15h56.44.534,subsecond_timing_v2,2021.1.2,Win32,59.84082341
space,0.784785,space,1.275045,,,ms_large,0,110,110,110,1,0.988,0.1,False,None,T05,r2,2021-04-28_15h56.44.534,subsecond_timing_v2,2021.1.2,Win32,59.84082341
space,0.67737,space,2.658375,,,ms_large,0,111,111,111,1,1.165,0.3,False,None,T05,r2,2021-04-28_15h56.44.534,subsecond_timing_v2,2021.1.2,Win32,59.84082341
space,0.512935,space,0.98733,,,ms_large,0,112,112,112,1,0.918,0.2,False,None,T05,r2,2021-04-28_15h56.44.534,subsecond_timing_v2,2021.1.2,Win32,59.84082341
space,0.778675,space,1.192545,,,ms_large,0,113,113,113,1,1.059,0.3,False,None,T05,r2,2021-04-28_15h56.44.534,subsecond_timing_v2,2021.1.2,Win32,59.84082341
space,0.74575,space,1.29323,,,ms_large,0,114,114,114,1,1.2,0.2,False,None,T05,r2,2021-04-28_15h56.44.534,subsecond_timing_v2,2021.1.2,Win32,59.84082341
space,0.795845,space,1.11268,,,ms_large,0,115,115,115,1,1.024,0.3,False,None,T05,r2,2021-04-28_15h56.44.534,subsecond_timing_v2,2021.1.2,Win32,59.84082341
space,0.754375,space,1.421005,,,ms_large,0,116,116,116,1,1.129,0.3,False,None,T05,r2,2021-04-28_15h56.44.534,subsecond_timing_v2,2021.1.2,Win32,59.84082341
space,0.460325,space,1.079535,,,ms_large,0,117,117,117,1,1.2,0.3,False,None,T05,r2,2021-04-28_15h56.44.534,subsecond_timing_v2,2021.1.2,Win32,59.84082341
space,0.745995,space,1.13919,,,ms_large,0,118,118,118,1,1.024,0.3,False,None,T05,r2,2021-04-28_15h56.44.534,subsecond_timing_v2,2021.1.2,Win32,59.84082341
space,0.65865,space,1.25514,,,ms_large,0,119,119,119,1,1.094,0.1,False,None,T05,r2,2021-04-28_15h56.44.534,subsecond_timing_v2,2021.1.2,Win32,59.84082341
space,0.542695,space,0.97476,,,ms_large,0,120,120,120,1,1.059,0.1,False,None,T05,r2,2021-04-28_15h56.44.534,subsecond_timing_v2,2021.1.2,Win32,59.84082341
space,0.74307,space,0.937265,,,ms_large,0,121,121,121,1,0.988,0.2,False,None,T05,r2,2021-04-28_15h56.44.534,subsecond_timing_v2,2021.1.2,Win32,59.84082341
space,0.25258,space,0.977405,,,ms_large,0,122,122,122,1,0.847,0.3,False,None,T05,r2,2021-04-28_15h56.44.534,subsecond_timing_v2,2021.1.2,Win32,59.84082341
space,0.67874,space,1.22892,,,ms_large,0,123,123,123,1,0.953,0.2,False,None,T05,r2,2021-04-28_15h56.44.534,subsecond_timing_v2,2021.1.2,Win32,59.84082341
space,0.737295,space,1.618805,,,ms_large,0,124,124,124,1,0.918,0.2,False,None,T05,r2,2021-04-28_15h56.44.534,subsecond_timing_v2,2021.1.2,Win32,59.84082341
space,1.02956,space,0.868425,,,ms_large,0,125,125,125,1,1.165,0.2,False,None,T05,r2,2021-04-28_15h56.44.534,subsecond_timing_v2,2021.1.2,Win32,59.84082341
space,0.79163,space,0.92076,,,ms_large,0,126,126,126,1,0.882,0.3,False,None,T05,r2,2021-04-28_15h56.44.534,subsecond_timing_v2,2021.1.2,Win32,59.84082341
space,0.80199,space,0.952535,,,ms_large,0,127,127,127,1,0.882,0.2,False,None,T05,r2,2021-04-28_15h56.44.534,subsecond_timing_v2,2021.1.2,Win32,59.84082341
space,0.805135,space,0.951545,,,ms_large,0,128,128,128,1,1.094,0.2,False,None,T05,r2,2021-04-28_15h56.44.534,subsecond_timing_v2,2021.1.2,Win32,59.84082341
space,0.84335,space,0.984845,,,ms_large,0,129,129,129,1,1.024,0.3,False,None,T05,r2,2021-04-28_15h56.44.534,subsecond_timing_v2,2021.1.2,Win32,59.84082341
space,0.868365,space,0.868195,,,ms_large,0,130,130,130,1,0.847,0.1,False,None,T05,r2,2021-04-28_15h56.44.534,subsecond_timing_v2,2021.1.2,Win32,59.84082341
space,0.775125,space,1.081835,,,ms_large,0,131,131,131,1,1.2,0.1,False,None,T05,r2,2021-04-28_15h56.44.534,subsecond_timing_v2,2021.1.2,Win32,59.84082341
space,0.845785,space,0.920655,,,ms_large,0,132,132,132,1,1.059,0.3,False,None,T05,r2,2021-04-28_15h56.44.534,subsecond_timing_v2,2021.1.2,Win32,59.84082341
space,0.827245,space,0.800305,,,ms_large,0,133,133,133,1,0.918,0.1,False,None,T05,r2,2021-04-28_15h56.44.534,subsecond_timing_v2,2021.1.2,Win32,59.84082341
space,0.520845,space,1.251705,,,ms_large,0,134,134,134,1,1.129,0.3,False,None,T05,r2,2021-04-28_15h56.44.534,subsecond_timing_v2,2021.1.2,Win32,59.84082341
space,0.545655,space,1.242865,,,ms_large,0,135,135,135,1,1.165,0.2,False,None,T05,r2,2021-04-28_15h56.44.534,subsecond_timing_v2,2021.1.2,Win32,59.84082341
space,0.33483,space,1.015845,,,ms_large,0,136,136,136,1,0.953,0.1,False,None,T05,r2,2021-04-28_15h56.44.534,subsecond_timing_v2,2021.1.2,Win32,59.84082341
space,0.89142,space,0.941735,,,ms_large,0,137,137,137,1,0.988,0.3,False,None,T05,r2,2021-04-28_15h56.44.534,subsecond_timing_v2,2021.1.2,Win32,59.84082341
space,1.178405,space,1.15172,,,ms_large,0,138,138,138,1,0.847,0.1,False,None,T05,r2,2021-04-28_15h56.44.534,subsecond_timing_v2,2021.1.2,Win32,59.84082341
space,0.484825,space,1.336845,,,ms_large,0,139,139,139,1,0.882,0.1,False,None,T05,r2,2021-04-28_15h56.44.534,subsecond_timing_v2,2021.1.2,Win32,59.84082341
space,0.76818,space,1.5501,,,ms_large,0,140,140,140,1,0.988,0.3,False,None,T05,r2,2021-04-28_15h56.44.534,subsecond_timing_v2,2021.1.2,Win32,59.84082341
space,0.428515,space,1.224875,,,ms_large,0,141,141,141,1,0.953,0.1,False,None,T05,r2,2021-04-28_15h56.44.534,subsecond_timing_v2,2021.1.2,Win32,59.84082341
space,0.270505,space,1.241915,,,ms_large,0,142,142,142,1,1.165,0.2,False,None,T05,r2,2021-04-28_15h56.44.534,subsecond_timing_v2,2021.1.2,Win32,59.84082341
space,0.88529,space,0.79363,,,ms_large,0,143,143,143,1,1.059,0.3,False,None,T05,r2,2021-04-28_15h56.44.534,subsecond_timing_v2,2021.1.2,Win32,59.84082341
space,0.879775,space,1.1707,,,ms_large,0,144,144,144,1,1.2,0.1,False,None,T05,r2,2021-04-28_15h56.44.534,subsecond_timing_v2,2021.1.2,Win32,59.84082341
space,1.137125,space,0.96816,,,ms_large,0,145,145,145,1,1.094,0.2,False,None,T05,r2,2021-04-28_15h56.44.534,subsecond_timing_v2,2021.1.2,Win32,59.84082341
space,0.921255,space,0.771655,,,ms_large,0,147,147,147,1,0.918,0.2,False,None,T05,r2,2021-04-28_15h56.44.534,subsecond_timing_v2,2021.1.2,Win32,59.84082341
space,0.745055,space,0.93879,,,ms_large,0,148,148,148,1,1.129,0.3,False,None,T05,r2,2021-04-28_15h56.44.534,subsecond_timing_v2,2021.1.2,Win32,59.84082341
space,2.28552,space,0.98466,,,ms_large,0,150,150,150,1,0.882,0.1,False,None,T05,r2,2021-04-28_15h56.44.534,subsecond_timing_v2,2021.1.2,Win32,59.84082341
space,0.877805,space,0.91978,,,ms_large,0,151,151,151,1,1.2,0.2,False,None,T05,r2,2021-04-28_15h56.44.534,subsecond_timing_v2,2021.1.2,Win32,59.84082341
space,1.01236,space,0.866325,,,ms_large,0,152,152,152,1,0.953,0.3,False,None,T05,r2,2021-04-28_15h56.44.534,subsecond_timing_v2,2021.1.2,Win32,59.84082341
space,0.968655,space,0.93643,,,ms_large,0,153,153,153,1,1.059,0.3,False,None,T05,r2,2021-04-28_15h56.44.534,subsecond_timing_v2,2021.1.2,Win32,59.84082341
space,1.108145,space,0.915945,,,ms_large,0,154,154,154,1,0.918,0.2,False,None,T05,r2,2021-04-28_15h56.44.534,subsecond_timing_v2,2021.1.2,Win32,59.84082341
space,1.03663,space,0.7048,,,ms_large,0,155,155,155,1,0.847,0.2,False,None,T05,r2,2021-04-28_15h56.44.534,subsecond_timing_v2,2021.1.2,Win32,59.84082341
space,0.724045,space,0.974895,,,ms_large,0,156,156,156,1,1.129,0.3,False,None,T05,r2,2021-04-28_15h56.44.534,subsecond_timing_v2,2021.1.2,Win32,59.84082341
space,0.909085,space,0.7889,,,ms_large,0,157,157,157,1,1.024,0.1,False,None,T05,r2,2021-04-28_15h56.44.534,subsecond_timing_v2,2021.1.2,Win32,59.84082341
space,0.78512,space,0.896945,,,ms_large,0,158,158,158,1,0.988,0.2,False,None,T05,r2,2021-04-28_15h56.44.534,subsecond_timing_v2,2021.1.2,Win32,59.84082341
space,0.051355,space,0.926005,,,ms_large,0,159,159,159,1,1.094,0.2,False,None,T05,r2,2021-04-28_15h56.44.534,subsecond_timing_v2,2021.1.2,Win32,59.84082341
space,0.978415,space,0.96815,,,ms_large,0,160,160,160,1,1.129,0.2,False,None,T05,r2,2021-04-28_15h56.44.534,subsecond_timing_v2,2021.1.2,Win32,59.84082341
space,0.688235,space,0.84369,,,ms_large,0,161,161,161,1,0.953,0.2,False,None,T05,r2,2021-04-28_15h56.44.534,subsecond_timing_v2,2021.1.2,Win32,59.84082341
space,1.07368,space,0.91821,,,ms_large,0,162,162,162,1,0.847,0.3,False,None,T05,r2,2021-04-28_15h56.44.534,subsecond_timing_v2,2021.1.2,Win32,59.84082341
space,1.093365,space,0.85336,,,ms_large,0,163,163,163,1,0.988,0.1,False,None,T05,r2,2021-04-28_15h56.44.534,subsecond_timing_v2,2021.1.2,Win32,59.84082341
space,1.075065,space,0.911945,,,ms_large,0,164,164,164,1,0.882,0.1,False,None,T05,r2,2021-04-28_15h56.44.534,subsecond_timing_v2,2021.1.2,Win32,59.84082341
space,0.901685,space,0.85323,,,ms_large,0,165,165,165,1,1.094,0.1,False,None,T05,r2,2021-04-28_15h56.44.534,subsecond_timing_v2,2021.1.2,Win32,59.84082341
space,0.985235,space,0.815585,,,ms_large,0,166,166,166,1,0.918,0.2,False,None,T05,r2,2021-04-28_15h56.44.534,subsecond_timing_v2,2021.1.2,Win32,59.84082341
space,0.81151,space,0.81805,,,ms_large,0,167,167,167,1,1.024,0.3,False,None,T05,r2,2021-04-28_15h56.44.534,subsecond_timing_v2,2021.1.2,Win32,59.84082341
space,0.786915,space,1.051925,,,ms_large,0,169,169,169,1,1.2,0.3,False,None,T05,r2,2021-04-28_15h56.44.534,subsecond_timing_v2,2021.1.2,Win32,59.84082341
space,0.922255,space,0.93479,,,ms_large,0,170,170,170,1,1.165,0.3,False,None,T05,r2,2021-04-28_15h56.44.534,subsecond_timing_v2,2021.1.2,Win32,59.84082341
space,1.09321,space,0.90894,,,ms_large,0,171,171,171,1,1.094,0.1,False,None,T05,r2,2021-04-28_15h56.44.534,subsecond_timing_v2,2021.1.2,Win32,59.84082341
space,1.077355,space,0.868025,,,ms_large,0,172,172,172,1,1.024,0.1,False,None,T05,r2,2021-04-28_15h56.44.534,subsecond_timing_v2,2021.1.2,Win32,59.84082341
space,0.921325,space,0.830145,,,ms_large,0,173,173,173,1,0.988,0.2,False,None,T05,r2,2021-04-28_15h56.44.534,subsecond_timing_v2,2021.1.2,Win32,59.84082341
space,0.737325,space,0.969975,,,ms_large,0,174,174,174,1,1.165,0.3,False,None,T05,r2,2021-04-28_15h56.44.534,subsecond_timing_v2,2021.1.2,Win32,59.84082341
space,0.76828,space,0.874335,,,ms_large,0,175,175,175,1,0.847,0.1,False,None,T05,r2,2021-04-28_15h56.44.534,subsecond_timing_v2,2021.1.2,Win32,59.84082341
space,1.127215,space,1.085215,,,ms_large,0,176,176,176,1,1.2,0.1,False,None,T05,r2,2021-04-28_15h56.44.534,subsecond_timing_v2,2021.1.2,Win32,59.84082341
space,0.767925,space,0.80986,,,ms_large,0,177,177,177,1,0.882,0.1,False,None,T05,r2,2021-04-28_15h56.44.534,subsecond_timing_v2,2021.1.2,Win32,59.84082341
space,0.801405,space,0.810075,,,ms_large,0,178,178,178,1,1.129,0.1,False,None,T05,r2,2021-04-28_15h56.44.534,subsecond_timing_v2,2021.1.2,Win32,59.84082341
space,1.06995,space,0.83956,,,ms_large,0,179,179,179,1,0.953,0.1,False,None,T05,r2,2021-04-28_15h56.44.534,subsecond_timing_v2,2021.1.2,Win32,59.84082341
space,1.092255,space,1.08594,,,ms_large,0,180,180,180,1,0.918,0.3,False,None,T05,r2,2021-04-28_15h56.44.534,subsecond_timing_v2,2021.1.2,Win32,59.84082341
space,1.09656,space,1.075055,,,ms_large,0,181,181,181,1,1.059,0.2,False,None,T05,r2,2021-04-28_15h56.44.534,subsecond_timing_v2,2021.1.2,Win32,59.84082341
space,2.48906,space,0.99282,,,ms_large,0,182,182,182,1,1.165,0.1,False,None,T05,r2,2021-04-28_15h56.44.534,subsecond_timing_v2,2021.1.2,Win32,59.84082341
space,0.87088,space,0.87117,,,ms_large,0,183,183,183,1,1.024,0.3,False,None,T05,r2,2021-04-28_15h56.44.534,subsecond_timing_v2,2021.1.2,Win32,59.84082341
space,0.72064,space,0.884805,,,ms_large,0,184,184,184,1,1.2,0.2,False,None,T05,r2,2021-04-28_15h56.44.534,subsecond_timing_v2,2021.1.2,Win32,59.84082341
space,1.07112,space,0.85389,,,ms_large,0,185,185,185,1,0.882,0.3,False,None,T05,r2,2021-04-28_15h56.44.534,subsecond_timing_v2,2021.1.2,Win32,59.84082341
space,0.67145,space,0.80691,,,ms_large,0,186,186,186,1,1.129,0.3,False,None,T05,r2,2021-04-28_15h56.44.534,subsecond_timing_v2,2021.1.2,Win32,59.84082341
space,0.618375,space,0.93785,,,ms_large,0,187,187,187,1,0.953,0.1,False,None,T05,r2,2021-04-28_15h56.44.534,subsecond_timing_v2,2021.1.2,Win32,59.84082341
space,0.854375,space,0.913195,,,ms_large,0,188,188,188,1,0.988,0.1,False,None,T05,r2,2021-04-28_15h56.44.534,subsecond_timing_v2,2021.1.2,Win32,59.84082341
space,0.76097,space,0.77345,,,ms_large,0,189,189,189,1,0.918,0.3,False,None,T05,r2,2021-04-28_15h56.44.534,subsecond_timing_v2,2021.1.2,Win32,59.84082341
space,0.62565,space,0.83877,,,ms_large,0,190,190,190,1,1.059,0.2,False,None,T05,r2,2021-04-28_15h56.44.534,subsecond_timing_v2,2021.1.2,Win32,59.84082341
space,0.395025,space,0.861835,,,ms_large,0,191,191,191,1,0.847,0.3,False,None,T05,r2,2021-04-28_15h56.44.534,subsecond_timing_v2,2021.1.2,Win32,59.84082341
space,0.81131,space,0.98972,,,ms_large,0,192,192,192,1,1.094,0.3,False,None,T05,r2,2021-04-28_15h56.44.534,subsecond_timing_v2,2021.1.2,Win32,59.84082341
space,1.207065,space,0.918545,,,ms_large,0,193,193,193,1,0.847,0.1,False,None,T05,r2,2021-04-28_15h56.44.534,subsecond_timing_v2,2021.1.2,Win32,59.84082341
space,0.844535,space,0.95696,,,ms_large,0,194,194,194,1,1.2,0.2,False,None,T05,r2,2021-04-28_15h56.44.534,subsecond_timing_v2,2021.1.2,Win32,59.84082341
space,0.93798,space,0.88276,,,ms_large,0,195,195,195,1,0.918,0.3,False,None,T05,r2,2021-04-28_15h56.44.534,subsecond_timing_v2,2021.1.2,Win32,59.84082341
space,0.904605,space,0.99407,,,ms_large,0,196,196,196,1,1.024,0.2,False,None,T05,r2,2021-04-28_15h56.44.534,subsecond_timing_v2,2021.1.2,Win32,59.84082341
space,0.96028,space,0.88475,,,ms_large,0,197,197,197,1,1.094,0.1,False,None,T05,r2,2021-04-28_15h56.44.534,subsecond_timing_v2,2021.1.2,Win32,59.84082341
space,1.10604,space,0.876735,,,ms_large,0,198,198,198,1,0.953,0.1,False,None,T05,r2,2021-04-28_15h56.44.534,subsecond_timing_v2,2021.1.2,Win32,59.84082341
space,0.76037,space,0.95564,,,ms_large,0,199,199,199,1,1.129,0.3,False,None,T05,r2,2021-04-28_15h56.44.534,subsecond_timing_v2,2021.1.2,Win32,59.84082341
space,1.145555,space,0.87109,,,ms_large,0,200,200,200,1,0.988,0.1,False,None,T05,r2,2021-04-28_15h56.44.534,subsecond_timing_v2,2021.1.2,Win32,59.84082341
space,0.93473,space,0.89919,,,ms_large,0,201,201,201,1,0.882,0.3,False,None,T05,r2,2021-04-28_15h56.44.534,subsecond_timing_v2,2021.1.2,Win32,59.84082341
space,0.88798,space,0.76872,,,ms_large,0,202,202,202,1,1.059,0.3,False,None,T05,r2,2021-04-28_15h56.44.534,subsecond_timing_v2,2021.1.2,Win32,59.84082341
space,0.675345,space,0.97031,,,ms_large,0,203,203,203,1,1.165,0.2,False,None,T05,r2,2021-04-28_15h56.44.534,subsecond_timing_v2,2021.1.2,Win32,59.84082341
space,1.041685,space,0.91566,,,ms_large,0,204,204,204,1,0.953,0.2,False,None,T05,r2,2021-04-28_15h56.44.534,subsecond_timing_v2,2021.1.2,Win32,59.84082341
space,0.97158,space,1.0907,,,ms_large,0,205,205,205,1,1.094,0.3,False,None,T05,r2,2021-04-28_15h56.44.534,subsecond_timing_v2,2021.1.2,Win32,59.84082341
space,0.82637,space,1.18817,,,ms_large,0,206,206,206,1,1.2,0.2,False,None,T05,r2,2021-04-28_15h56.44.534,subsecond_timing_v2,2021.1.2,Win32,59.84082341
space,0.93976,space,0.92829,,,ms_large,0,207,207,207,1,1.024,0.1,False,None,T05,r2,2021-04-28_15h56.44.534,subsecond_timing_v2,2021.1.2,Win32,59.84082341
space,0.93875,space,1.133465,,,ms_large,0,208,208,208,1,0.847,0.3,False,None,T05,r2,2021-04-28_15h56.44.534,subsecond_timing_v2,2021.1.2,Win32,59.84082341
space,1.484995,space,1.001835,,,ms_large,0,209,209,209,1,1.129,0.2,False,None,T05,r2,2021-04-28_15h56.44.534,subsecond_timing_v2,2021.1.2,Win32,59.84082341
space,0.553835,space,1.03318,,,ms_large,0,210,210,210,1,1.165,0.3,False,None,T05,r2,2021-04-28_15h56.44.534,subsecond_timing_v2,2021.1.2,Win32,59.84082341
space,0.955775,space,1.032455,,,ms_large,0,211,211,211,1,0.988,0.3,False,None,T05,r2,2021-04-28_15h56.44.534,subsecond_timing_v2,2021.1.2,Win32,59.84082341
space,0.95408,space,0.905825,,,ms_large,0,212,212,212,1,0.882,0.3,False,None,T05,r2,2021-04-28_15h56.44.534,subsecond_timing_v2,2021.1.2,Win32,59.84082341
space,0.971585,space,0.858285,,,ms_large,0,213,213,213,1,1.059,0.2,False,None,T05,r2,2021-04-28_15h56.44.534,subsecond_timing_v2,2021.1.2,Win32,59.84082341
space,0.97286,space,0.86375,,,ms_large,0,214,214,214,1,0.918,0.3,False,None,T05,r2,2021-04-28_15h56.44.534,subsecond_timing_v2,2021.1.2,Win32,59.84082341
space,0.87323,space,1.00524,,,ms_large,0,215,215,215,1,0.953,0.2,False,None,T05,r2,2021-04-28_15h56.44.534,subsecond_timing_v2,2021.1.2,Win32,59.84082341
space,0.993865,space,0.956865,,,ms_large,0,216,216,216,1,0.847,0.3,False,None,T05,r2,2021-04-28_15h56.44.534,subsecond_timing_v2,2021.1.2,Win32,59.84082341
space,0.942295,space,0.85889,,,ms_large,0,217,217,217,1,1.024,0.1,False,None,T05,r2,2021-04-28_15h56.44.534,subsecond_timing_v2,2021.1.2,Win32,59.84082341
space,0.72074,space,0.941565,,,ms_large,0,218,218,218,1,1.059,0.3,False,None,T05,r2,2021-04-28_15h56.44.534,subsecond_timing_v2,2021.1.2,Win32,59.84082341
space,0.792825,space,0.99584,,,ms_large,0,219,219,219,1,0.988,0.1,False,None,T05,r2,2021-04-28_15h56.44.534,subsecond_timing_v2,2021.1.2,Win32,59.84082341
space,0.639695,space,1.01295,,,ms_large,0,220,220,220,1,1.094,0.1,False,None,T05,r2,2021-04-28_15h56.44.534,subsecond_timing_v2,2021.1.2,Win32,59.84082341
space,2.923115,space,0.893335,,,ms_large,0,221,221,221,1,0.918,0.3,False,None,T05,r2,2021-04-28_15h56.44.534,subsecond_timing_v2,2021.1.2,Win32,59.84082341
space,0.3352,space,0.93227,,,ms_large,0,222,222,222,1,0.882,0.1,False,None,T05,r2,2021-04-28_15h56.44.534,subsecond_timing_v2,2021.1.2,Win32,59.84082341
space,0.47691,space,0.949,,,ms_large,0,223,223,223,1,1.129,0.2,False,None,T05,r2,2021-04-28_15h56.44.534,subsecond_timing_v2,2021.1.2,Win32,59.84082341
space,0.583815,space,1.181965,,,ms_large,0,224,224,224,1,1.165,0.3,False,None,T05,r2,2021-04-28_15h56.44.534,subsecond_timing_v2,2021.1.2,Win32,59.84082341
space,0.75168,space,1.032805,,,ms_large,0,225,225,225,1,1.2,0.3,False,None,T05,r2,2021-04-28_15h56.44.534,subsecond_timing_v2,2021.1.2,Win32,59.84082341
