key_resp_start.keys,key_resp_start.rt,key_resp_stop.keys,key_resp_stop.rt,feedback_range,hit,stimulus_range,trials.thisRepN,trials.thisTrialN,trials.thisN,trials.thisIndex,trials.ran,stimulus_duration,onset,feedback,feedback_range_fromfile,participant,session,date,expName,psychopyVersion,OS,frameRate
space,0.812675,space,0.94573,0.3,TRUE,Training,0,0,0,0,1,1,0.2,True,0.3,T06,r2,2021-04-25_15h04.31.806,subsecond_timing_v2,2021.1.2,Win32,59.97361161
space,1.10316,space,0.82391,0.3,TRUE,Training,0,1,1,1,1,0.75,0.2,True,0.3,T06,r2,2021-04-25_15h04.31.806,subsecond_timing_v2,2021.1.2,Win32,59.97361161
space,0.841565,space,0.43369,0.3,TRUE,Training,0,2,2,2,1,0.5,0.2,True,0.3,T06,r2,2021-04-25_15h04.31.806,subsecond_timing_v2,2021.1.2,Win32,59.97361161
space,0.69952,space,0.40298,0.3,TRUE,Training,0,3,3,3,1,0.5,0.3,True,0.3,T06,r2,2021-04-25_15h04.31.806,subsecond_timing_v2,2021.1.2,Win32,59.97361161
space,0.59427,space,0.33101,0.3,FALSE,Training,0,4,4,4,1,0.75,0.3,True,0.3,T06,r2,2021-04-25_15h04.31.806,subsecond_timing_v2,2021.1.2,Win32,59.97361161
space,0.703095,space,0.692495,0.3,FALSE,Training,0,5,5,5,1,1,0.3,True,0.3,T06,r2,2021-04-25_15h04.31.806,subsecond_timing_v2,2021.1.2,Win32,59.97361161
space,0.535705,space,0.388735,,,ms_large,0,6,6,6,1,1.165,0.2,False,None,T06,r2,2021-04-25_15h04.31.806,subsecond_timing_v2,2021.1.2,Win32,59.97361161
space,0.7859,space,0.42807,,,ms_large,0,8,8,8,1,1.2,0.3,False,None,T06,r2,2021-04-25_15h04.31.806,subsecond_timing_v2,2021.1.2,Win32,59.97361161
space,0.658515,space,0.73375,,,ms_large,0,9,9,9,1,1.024,0.1,False,None,T06,r2,2021-04-25_15h04.31.806,subsecond_timing_v2,2021.1.2,Win32,59.97361161
space,0.71069,space,0.949405,,,ms_large,0,10,10,10,1,0.953,0.3,False,None,T06,r2,2021-04-25_15h04.31.806,subsecond_timing_v2,2021.1.2,Win32,59.97361161
space,0.744175,space,1.02714,,,ms_large,0,11,11,11,1,0.847,0.1,False,None,T06,r2,2021-04-25_15h04.31.806,subsecond_timing_v2,2021.1.2,Win32,59.97361161
space,0.7493,space,1.00317,,,ms_large,0,12,12,12,1,0.882,0.3,False,None,T06,r2,2021-04-25_15h04.31.806,subsecond_timing_v2,2021.1.2,Win32,59.97361161
space,0.91931,space,0.938715,,,ms_large,0,13,13,13,1,1.129,0.1,False,None,T06,r2,2021-04-25_15h04.31.806,subsecond_timing_v2,2021.1.2,Win32,59.97361161
space,1.07877,space,0.98291,,,ms_large,0,14,14,14,1,1.059,0.3,False,None,T06,r2,2021-04-25_15h04.31.806,subsecond_timing_v2,2021.1.2,Win32,59.97361161
space,0.819375,space,0.789845,,,ms_large,0,15,15,15,1,0.918,0.3,False,None,T06,r2,2021-04-25_15h04.31.806,subsecond_timing_v2,2021.1.2,Win32,59.97361161
space,0.749055,space,0.72843,,,ms_large,0,16,16,16,1,0.988,0.1,False,None,T06,r2,2021-04-25_15h04.31.806,subsecond_timing_v2,2021.1.2,Win32,59.97361161
space,0.786875,space,0.846965,,,ms_large,0,17,17,17,1,0.953,0.2,False,None,T06,r2,2021-04-25_15h04.31.806,subsecond_timing_v2,2021.1.2,Win32,59.97361161
space,0.68771,space,1.087525,,,ms_large,0,18,18,18,1,1.129,0.3,False,None,T06,r2,2021-04-25_15h04.31.806,subsecond_timing_v2,2021.1.2,Win32,59.97361161
space,0.81592,space,0.93342,,,ms_large,0,19,19,19,1,0.988,0.2,False,None,T06,r2,2021-04-25_15h04.31.806,subsecond_timing_v2,2021.1.2,Win32,59.97361161
space,0.774725,space,0.928875,,,ms_large,0,20,20,20,1,1.024,0.1,False,None,T06,r2,2021-04-25_15h04.31.806,subsecond_timing_v2,2021.1.2,Win32,59.97361161
space,0.79891,space,0.943525,,,ms_large,0,21,21,21,1,1.165,0.1,False,None,T06,r2,2021-04-25_15h04.31.806,subsecond_timing_v2,2021.1.2,Win32,59.97361161
space,0.753875,space,1.12138,,,ms_large,0,22,22,22,1,1.2,0.1,False,None,T06,r2,2021-04-25_15h04.31.806,subsecond_timing_v2,2021.1.2,Win32,59.97361161
space,0.879825,space,1.073865,,,ms_large,0,23,23,23,1,0.882,0.2,False,None,T06,r2,2021-04-25_15h04.31.806,subsecond_timing_v2,2021.1.2,Win32,59.97361161
space,0.63616,space,1.102445,,,ms_large,0,24,24,24,1,0.847,0.3,False,None,T06,r2,2021-04-25_15h04.31.806,subsecond_timing_v2,2021.1.2,Win32,59.97361161
space,0.737405,space,0.960585,,,ms_large,0,25,25,25,1,1.094,0.1,False,None,T06,r2,2021-04-25_15h04.31.806,subsecond_timing_v2,2021.1.2,Win32,59.97361161
space,0.756445,space,1.168695,,,ms_large,0,26,26,26,1,1.059,0.1,False,None,T06,r2,2021-04-25_15h04.31.806,subsecond_timing_v2,2021.1.2,Win32,59.97361161
space,0.87128,space,0.84772,,,ms_large,0,27,27,27,1,0.918,0.3,False,None,T06,r2,2021-04-25_15h04.31.806,subsecond_timing_v2,2021.1.2,Win32,59.97361161
space,0.88634,space,0.867115,,,ms_large,0,28,28,28,1,0.988,0.2,False,None,T06,r2,2021-04-25_15h04.31.806,subsecond_timing_v2,2021.1.2,Win32,59.97361161
space,0.735235,space,1.011805,,,ms_large,0,29,29,29,1,1.165,0.2,False,None,T06,r2,2021-04-25_15h04.31.806,subsecond_timing_v2,2021.1.2,Win32,59.97361161
space,0.706555,space,0.88571,,,ms_large,0,30,30,30,1,1.129,0.1,False,None,T06,r2,2021-04-25_15h04.31.806,subsecond_timing_v2,2021.1.2,Win32,59.97361161
space,0.749215,space,1.1388,,,ms_large,0,31,31,31,1,1.059,0.1,False,None,T06,r2,2021-04-25_15h04.31.806,subsecond_timing_v2,2021.1.2,Win32,59.97361161
space,0.832815,space,0.952915,,,ms_large,0,32,32,32,1,0.918,0.3,False,None,T06,r2,2021-04-25_15h04.31.806,subsecond_timing_v2,2021.1.2,Win32,59.97361161
space,0.658055,space,1.18281,,,ms_large,0,33,33,33,1,1.2,0.3,False,None,T06,r2,2021-04-25_15h04.31.806,subsecond_timing_v2,2021.1.2,Win32,59.97361161
space,0.82199,space,1.051555,,,ms_large,0,34,34,34,1,0.847,0.1,False,None,T06,r2,2021-04-25_15h04.31.806,subsecond_timing_v2,2021.1.2,Win32,59.97361161
space,0.69516,space,1.0549,,,ms_large,0,35,35,35,1,1.024,0.1,False,None,T06,r2,2021-04-25_15h04.31.806,subsecond_timing_v2,2021.1.2,Win32,59.97361161
space,0.753795,space,0.83864,,,ms_large,0,36,36,36,1,0.882,0.1,False,None,T06,r2,2021-04-25_15h04.31.806,subsecond_timing_v2,2021.1.2,Win32,59.97361161
space,0.62536,space,1.13648,,,ms_large,0,37,37,37,1,1.094,0.2,False,None,T06,r2,2021-04-25_15h04.31.806,subsecond_timing_v2,2021.1.2,Win32,59.97361161
space,0.905185,space,1.14031,,,ms_large,0,38,38,38,1,0.953,0.1,False,None,T06,r2,2021-04-25_15h04.31.806,subsecond_timing_v2,2021.1.2,Win32,59.97361161
space,0.63553,space,1.257145,,,ms_large,0,39,39,39,1,1.165,0.2,False,None,T06,r2,2021-04-25_15h04.31.806,subsecond_timing_v2,2021.1.2,Win32,59.97361161
space,0.736615,space,1.213695,,,ms_large,0,40,40,40,1,0.953,0.1,False,None,T06,r2,2021-04-25_15h04.31.806,subsecond_timing_v2,2021.1.2,Win32,59.97361161
space,0.73885,space,1.205715,,,ms_large,0,41,41,41,1,0.988,0.1,False,None,T06,r2,2021-04-25_15h04.31.806,subsecond_timing_v2,2021.1.2,Win32,59.97361161
space,0.84145,space,1.188005,,,ms_large,0,42,42,42,1,1.094,0.1,False,None,T06,r2,2021-04-25_15h04.31.806,subsecond_timing_v2,2021.1.2,Win32,59.97361161
space,0.90575,space,1.079535,,,ms_large,0,43,43,43,1,1.129,0.3,False,None,T06,r2,2021-04-25_15h04.31.806,subsecond_timing_v2,2021.1.2,Win32,59.97361161
space,0.83527,space,1.06367,,,ms_large,0,44,44,44,1,0.882,0.2,False,None,T06,r2,2021-04-25_15h04.31.806,subsecond_timing_v2,2021.1.2,Win32,59.97361161
space,0.72881,space,1.05998,,,ms_large,0,45,45,45,1,1.2,0.1,False,None,T06,r2,2021-04-25_15h04.31.806,subsecond_timing_v2,2021.1.2,Win32,59.97361161
space,0.67392,space,1.068725,,,ms_large,0,46,46,46,1,1.024,0.1,False,None,T06,r2,2021-04-25_15h04.31.806,subsecond_timing_v2,2021.1.2,Win32,59.97361161
space,0.83598,space,1.240255,,,ms_large,0,47,47,47,1,0.918,0.2,False,None,T06,r2,2021-04-25_15h04.31.806,subsecond_timing_v2,2021.1.2,Win32,59.97361161
space,0.88676,space,1.223375,,,ms_large,0,48,48,48,1,0.847,0.1,False,None,T06,r2,2021-04-25_15h04.31.806,subsecond_timing_v2,2021.1.2,Win32,59.97361161
space,0.969265,space,1.16785,,,ms_large,0,49,49,49,1,1.059,0.3,False,None,T06,r2,2021-04-25_15h04.31.806,subsecond_timing_v2,2021.1.2,Win32,59.97361161
space,0.837465,space,1.326335,,,ms_large,0,50,50,50,1,0.953,0.2,False,None,T06,r2,2021-04-25_15h04.31.806,subsecond_timing_v2,2021.1.2,Win32,59.97361161
space,0.743525,space,1.01871,,,ms_large,0,51,51,51,1,1.024,0.3,False,None,T06,r2,2021-04-25_15h04.31.806,subsecond_timing_v2,2021.1.2,Win32,59.97361161
space,0.87688,space,1.238915,,,ms_large,0,52,52,52,1,1.165,0.3,False,None,T06,r2,2021-04-25_15h04.31.806,subsecond_timing_v2,2021.1.2,Win32,59.97361161
space,0.85516,space,0.99619,,,ms_large,0,53,53,53,1,0.847,0.3,False,None,T06,r2,2021-04-25_15h04.31.806,subsecond_timing_v2,2021.1.2,Win32,59.97361161
space,0.84486,space,1.186965,,,ms_large,0,54,54,54,1,1.2,0.1,False,None,T06,r2,2021-04-25_15h04.31.806,subsecond_timing_v2,2021.1.2,Win32,59.97361161
space,0.885115,space,1.008725,,,ms_large,0,55,55,55,1,0.988,0.3,False,None,T06,r2,2021-04-25_15h04.31.806,subsecond_timing_v2,2021.1.2,Win32,59.97361161
space,0.77588,space,1.036055,,,ms_large,0,56,56,56,1,0.882,0.1,False,None,T06,r2,2021-04-25_15h04.31.806,subsecond_timing_v2,2021.1.2,Win32,59.97361161
space,0.80499,space,1.10261,,,ms_large,0,57,57,57,1,1.059,0.1,False,None,T06,r2,2021-04-25_15h04.31.806,subsecond_timing_v2,2021.1.2,Win32,59.97361161
space,0.76975,space,1.11715,,,ms_large,0,58,58,58,1,1.094,0.1,False,None,T06,r2,2021-04-25_15h04.31.806,subsecond_timing_v2,2021.1.2,Win32,59.97361161
space,0.718605,space,1.09033,,,ms_large,0,59,59,59,1,1.129,0.3,False,None,T06,r2,2021-04-25_15h04.31.806,subsecond_timing_v2,2021.1.2,Win32,59.97361161
space,0.73471,space,0.952745,,,ms_large,0,60,60,60,1,0.918,0.3,False,None,T06,r2,2021-04-25_15h04.31.806,subsecond_timing_v2,2021.1.2,Win32,59.97361161
space,0.653795,space,1.18936,,,ms_large,0,61,61,61,1,1.129,0.1,False,None,T06,r2,2021-04-25_15h04.31.806,subsecond_timing_v2,2021.1.2,Win32,59.97361161
space,0.628695,space,1.375045,,,ms_large,0,62,62,62,1,1.165,0.3,False,None,T06,r2,2021-04-25_15h04.31.806,subsecond_timing_v2,2021.1.2,Win32,59.97361161
space,0.91789,space,1.38672,,,ms_large,0,63,63,63,1,0.953,0.2,False,None,T06,r2,2021-04-25_15h04.31.806,subsecond_timing_v2,2021.1.2,Win32,59.97361161
space,0.92646,space,1.43423,,,ms_large,0,64,64,64,1,1.094,0.2,False,None,T06,r2,2021-04-25_15h04.31.806,subsecond_timing_v2,2021.1.2,Win32,59.97361161
space,0.99315,space,1.2185,,,ms_large,0,65,65,65,1,0.882,0.1,False,None,T06,r2,2021-04-25_15h04.31.806,subsecond_timing_v2,2021.1.2,Win32,59.97361161
space,0.857965,space,1.256035,,,ms_large,0,66,66,66,1,0.918,0.2,False,None,T06,r2,2021-04-25_15h04.31.806,subsecond_timing_v2,2021.1.2,Win32,59.97361161
space,0.94175,space,1.033985,,,ms_large,0,67,67,67,1,0.988,0.1,False,None,T06,r2,2021-04-25_15h04.31.806,subsecond_timing_v2,2021.1.2,Win32,59.97361161
space,0.900755,space,1.12565,,,ms_large,0,68,68,68,1,1.024,0.1,False,None,T06,r2,2021-04-25_15h04.31.806,subsecond_timing_v2,2021.1.2,Win32,59.97361161
space,0.886545,space,1.32657,,,ms_large,0,69,69,69,1,1.2,0.1,False,None,T06,r2,2021-04-25_15h04.31.806,subsecond_timing_v2,2021.1.2,Win32,59.97361161
space,0.68012,space,1.390595,,,ms_large,0,70,70,70,1,1.059,0.1,False,None,T06,r2,2021-04-25_15h04.31.806,subsecond_timing_v2,2021.1.2,Win32,59.97361161
space,1.002625,space,1.400375,,,ms_large,0,71,71,71,1,0.847,0.1,False,None,T06,r2,2021-04-25_15h04.31.806,subsecond_timing_v2,2021.1.2,Win32,59.97361161
space,0.93373,space,1.13416,,,ms_large,0,72,72,72,1,1.094,0.2,False,None,T06,r2,2021-04-25_15h04.31.806,subsecond_timing_v2,2021.1.2,Win32,59.97361161
space,0.78508,space,1.002765,,,ms_large,0,73,73,73,1,0.918,0.3,False,None,T06,r2,2021-04-25_15h04.31.806,subsecond_timing_v2,2021.1.2,Win32,59.97361161
space,0.769995,space,1.03728,,,ms_large,0,74,74,74,1,0.953,0.2,False,None,T06,r2,2021-04-25_15h04.31.806,subsecond_timing_v2,2021.1.2,Win32,59.97361161
space,0.7716,space,0.814635,,,ms_large,0,75,75,75,1,0.882,0.2,False,None,T06,r2,2021-04-25_15h04.31.806,subsecond_timing_v2,2021.1.2,Win32,59.97361161
space,0.655145,space,1.074545,,,ms_large,0,76,76,76,1,0.988,0.3,False,None,T06,r2,2021-04-25_15h04.31.806,subsecond_timing_v2,2021.1.2,Win32,59.97361161
space,0.671335,space,1.285455,,,ms_large,0,77,77,77,1,1.2,0.1,False,None,T06,r2,2021-04-25_15h04.31.806,subsecond_timing_v2,2021.1.2,Win32,59.97361161
space,0.901935,space,1.059335,,,ms_large,0,78,78,78,1,1.024,0.2,False,None,T06,r2,2021-04-25_15h04.31.806,subsecond_timing_v2,2021.1.2,Win32,59.97361161
space,0.887385,space,1.086385,,,ms_large,0,79,79,79,1,1.129,0.1,False,None,T06,r2,2021-04-25_15h04.31.806,subsecond_timing_v2,2021.1.2,Win32,59.97361161
space,0.68789,space,1.100325,,,ms_large,0,80,80,80,1,1.165,0.3,False,None,T06,r2,2021-04-25_15h04.31.806,subsecond_timing_v2,2021.1.2,Win32,59.97361161
space,0.719925,space,1.10055,,,ms_large,0,81,81,81,1,1.059,0.2,False,None,T06,r2,2021-04-25_15h04.31.806,subsecond_timing_v2,2021.1.2,Win32,59.97361161
space,0.878855,space,0.98975,,,ms_large,0,82,82,82,1,0.847,0.1,False,None,T06,r2,2021-04-25_15h04.31.806,subsecond_timing_v2,2021.1.2,Win32,59.97361161
space,0.98602,space,1.010105,,,ms_large,0,83,83,83,1,1.024,0.1,False,None,T06,r2,2021-04-25_15h04.31.806,subsecond_timing_v2,2021.1.2,Win32,59.97361161
space,1.389145,space,1.48928,,,ms_large,0,84,84,84,1,1.059,0.3,False,None,T06,r2,2021-04-25_15h04.31.806,subsecond_timing_v2,2021.1.2,Win32,59.97361161
space,1.284475,space,0.98466,,,ms_large,0,85,85,85,1,0.918,0.1,False,None,T06,r2,2021-04-25_15h04.31.806,subsecond_timing_v2,2021.1.2,Win32,59.97361161
space,1.07227,space,0.85538,,,ms_large,0,86,86,86,1,1.165,0.1,False,None,T06,r2,2021-04-25_15h04.31.806,subsecond_timing_v2,2021.1.2,Win32,59.97361161
space,1.166235,space,0.852415,,,ms_large,0,87,87,87,1,0.953,0.1,False,None,T06,r2,2021-04-25_15h04.31.806,subsecond_timing_v2,2021.1.2,Win32,59.97361161
space,0.83711,space,0.95254,,,ms_large,0,88,88,88,1,0.882,0.1,False,None,T06,r2,2021-04-25_15h04.31.806,subsecond_timing_v2,2021.1.2,Win32,59.97361161
space,1.42637,space,0.819555,,,ms_large,0,89,89,89,1,0.847,0.1,False,None,T06,r2,2021-04-25_15h04.31.806,subsecond_timing_v2,2021.1.2,Win32,59.97361161
space,0.84027,space,0.93787,,,ms_large,0,90,90,90,1,1.094,0.1,False,None,T06,r2,2021-04-25_15h04.31.806,subsecond_timing_v2,2021.1.2,Win32,59.97361161
space,0.80462,space,1.035315,,,ms_large,0,91,91,91,1,1.129,0.2,False,None,T06,r2,2021-04-25_15h04.31.806,subsecond_timing_v2,2021.1.2,Win32,59.97361161
space,0.70258,space,1.07227,,,ms_large,0,92,92,92,1,1.2,0.1,False,None,T06,r2,2021-04-25_15h04.31.806,subsecond_timing_v2,2021.1.2,Win32,59.97361161
space,0.7046,space,1.137115,,,ms_large,0,93,93,93,1,0.988,0.1,False,None,T06,r2,2021-04-25_15h04.31.806,subsecond_timing_v2,2021.1.2,Win32,59.97361161
space,0.71993,space,1.10553,,,ms_large,0,94,94,94,1,1.129,0.3,False,None,T06,r2,2021-04-25_15h04.31.806,subsecond_timing_v2,2021.1.2,Win32,59.97361161
space,0.81836,space,1.03611,,,ms_large,0,95,95,95,1,1.165,0.2,False,None,T06,r2,2021-04-25_15h04.31.806,subsecond_timing_v2,2021.1.2,Win32,59.97361161
space,0.9364,space,1.01946,,,ms_large,0,96,96,96,1,1.024,0.3,False,None,T06,r2,2021-04-25_15h04.31.806,subsecond_timing_v2,2021.1.2,Win32,59.97361161
space,0.766775,space,0.956325,,,ms_large,0,97,97,97,1,1.094,0.1,False,None,T06,r2,2021-04-25_15h04.31.806,subsecond_timing_v2,2021.1.2,Win32,59.97361161
space,1.172115,space,0.91833,,,ms_large,0,98,98,98,1,1.059,0.2,False,None,T06,r2,2021-04-25_15h04.31.806,subsecond_timing_v2,2021.1.2,Win32,59.97361161
space,1.36935,space,0.801885,,,ms_large,0,99,99,99,1,1.2,0.1,False,None,T06,r2,2021-04-25_15h04.31.806,subsecond_timing_v2,2021.1.2,Win32,59.97361161
space,1.907835,space,0.78272,,,ms_large,0,100,100,100,1,0.882,0.3,False,None,T06,r2,2021-04-25_15h04.31.806,subsecond_timing_v2,2021.1.2,Win32,59.97361161
space,0.7863,space,0.95803,,,ms_large,0,101,101,101,1,0.918,0.3,False,None,T06,r2,2021-04-25_15h04.31.806,subsecond_timing_v2,2021.1.2,Win32,59.97361161
space,1.116525,space,0.81858,,,ms_large,0,102,102,102,1,0.988,0.3,False,None,T06,r2,2021-04-25_15h04.31.806,subsecond_timing_v2,2021.1.2,Win32,59.97361161
space,2.92125,space,0.78464,,,ms_large,0,103,103,103,1,0.847,0.1,False,None,T06,r2,2021-04-25_15h04.31.806,subsecond_timing_v2,2021.1.2,Win32,59.97361161
space,0.636855,space,0.733785,,,ms_large,0,104,104,104,1,0.953,0.3,False,None,T06,r2,2021-04-25_15h04.31.806,subsecond_timing_v2,2021.1.2,Win32,59.97361161
space,1.70469,space,0.68297,,,ms_large,0,105,105,105,1,0.847,0.3,False,None,T06,r2,2021-04-25_15h04.31.806,subsecond_timing_v2,2021.1.2,Win32,59.97361161
space,0.61794,space,0.740865,,,ms_large,0,106,106,106,1,1.094,0.3,False,None,T06,r2,2021-04-25_15h04.31.806,subsecond_timing_v2,2021.1.2,Win32,59.97361161
space,0.75583,space,0.89518,,,ms_large,0,107,107,107,1,1.129,0.3,False,None,T06,r2,2021-04-25_15h04.31.806,subsecond_timing_v2,2021.1.2,Win32,59.97361161
space,0.819115,space,0.86373,,,ms_large,0,108,108,108,1,0.882,0.3,False,None,T06,r2,2021-04-25_15h04.31.806,subsecond_timing_v2,2021.1.2,Win32,59.97361161
space,0.787775,space,0.90036,,,ms_large,0,109,109,109,1,0.953,0.2,False,None,T06,r2,2021-04-25_15h04.31.806,subsecond_timing_v2,2021.1.2,Win32,59.97361161
space,0.76906,space,0.946875,,,ms_large,0,110,110,110,1,0.988,0.1,False,None,T06,r2,2021-04-25_15h04.31.806,subsecond_timing_v2,2021.1.2,Win32,59.97361161
space,0.62271,space,1.085845,,,ms_large,0,111,111,111,1,1.165,0.3,False,None,T06,r2,2021-04-25_15h04.31.806,subsecond_timing_v2,2021.1.2,Win32,59.97361161
space,0.850635,space,0.90367,,,ms_large,0,112,112,112,1,0.918,0.2,False,None,T06,r2,2021-04-25_15h04.31.806,subsecond_timing_v2,2021.1.2,Win32,59.97361161
space,0.788605,space,1.08483,,,ms_large,0,113,113,113,1,1.059,0.3,False,None,T06,r2,2021-04-25_15h04.31.806,subsecond_timing_v2,2021.1.2,Win32,59.97361161
space,0.636495,space,1.15212,,,ms_large,0,114,114,114,1,1.2,0.2,False,None,T06,r2,2021-04-25_15h04.31.806,subsecond_timing_v2,2021.1.2,Win32,59.97361161
space,0.728395,space,1.139195,,,ms_large,0,115,115,115,1,1.024,0.3,False,None,T06,r2,2021-04-25_15h04.31.806,subsecond_timing_v2,2021.1.2,Win32,59.97361161
space,0.823235,space,1.169545,,,ms_large,0,116,116,116,1,1.129,0.3,False,None,T06,r2,2021-04-25_15h04.31.806,subsecond_timing_v2,2021.1.2,Win32,59.97361161
space,0.75934,space,0.818335,,,ms_large,0,117,117,117,1,1.2,0.3,False,None,T06,r2,2021-04-25_15h04.31.806,subsecond_timing_v2,2021.1.2,Win32,59.97361161
space,0.66774,space,0.88897,,,ms_large,0,118,118,118,1,1.024,0.3,False,None,T06,r2,2021-04-25_15h04.31.806,subsecond_timing_v2,2021.1.2,Win32,59.97361161
space,0.77314,space,1.017835,,,ms_large,0,119,119,119,1,1.094,0.1,False,None,T06,r2,2021-04-25_15h04.31.806,subsecond_timing_v2,2021.1.2,Win32,59.97361161
space,0.58681,space,0.88715,,,ms_large,0,120,120,120,1,1.059,0.1,False,None,T06,r2,2021-04-25_15h04.31.806,subsecond_timing_v2,2021.1.2,Win32,59.97361161
space,0.786325,space,0.807755,,,ms_large,0,121,121,121,1,0.988,0.2,False,None,T06,r2,2021-04-25_15h04.31.806,subsecond_timing_v2,2021.1.2,Win32,59.97361161
space,0.74587,space,0.68632,,,ms_large,0,122,122,122,1,0.847,0.3,False,None,T06,r2,2021-04-25_15h04.31.806,subsecond_timing_v2,2021.1.2,Win32,59.97361161
space,0.9001,space,0.834095,,,ms_large,0,123,123,123,1,0.953,0.2,False,None,T06,r2,2021-04-25_15h04.31.806,subsecond_timing_v2,2021.1.2,Win32,59.97361161
space,0.719645,space,0.77094,,,ms_large,0,124,124,124,1,0.918,0.2,False,None,T06,r2,2021-04-25_15h04.31.806,subsecond_timing_v2,2021.1.2,Win32,59.97361161
space,1.15288,space,0.59079,,,ms_large,0,125,125,125,1,1.165,0.2,False,None,T06,r2,2021-04-25_15h04.31.806,subsecond_timing_v2,2021.1.2,Win32,59.97361161
space,0.810845,space,0.67663,,,ms_large,0,126,126,126,1,0.882,0.3,False,None,T06,r2,2021-04-25_15h04.31.806,subsecond_timing_v2,2021.1.2,Win32,59.97361161
space,1.57081,space,0.59828,,,ms_large,0,127,127,127,1,0.882,0.2,False,None,T06,r2,2021-04-25_15h04.31.806,subsecond_timing_v2,2021.1.2,Win32,59.97361161
space,0.738105,space,0.749865,,,ms_large,0,128,128,128,1,1.094,0.2,False,None,T06,r2,2021-04-25_15h04.31.806,subsecond_timing_v2,2021.1.2,Win32,59.97361161
space,0.7454,space,0.80193,,,ms_large,0,129,129,129,1,1.024,0.3,False,None,T06,r2,2021-04-25_15h04.31.806,subsecond_timing_v2,2021.1.2,Win32,59.97361161
space,0.8211,space,0.80064,,,ms_large,0,130,130,130,1,0.847,0.1,False,None,T06,r2,2021-04-25_15h04.31.806,subsecond_timing_v2,2021.1.2,Win32,59.97361161
space,0.78678,space,1.003385,,,ms_large,0,131,131,131,1,1.2,0.1,False,None,T06,r2,2021-04-25_15h04.31.806,subsecond_timing_v2,2021.1.2,Win32,59.97361161
space,0.724105,space,0.85174,,,ms_large,0,132,132,132,1,1.059,0.3,False,None,T06,r2,2021-04-25_15h04.31.806,subsecond_timing_v2,2021.1.2,Win32,59.97361161
space,0.711175,space,0.832275,,,ms_large,0,133,133,133,1,0.918,0.1,False,None,T06,r2,2021-04-25_15h04.31.806,subsecond_timing_v2,2021.1.2,Win32,59.97361161
space,1.00478,space,0.739115,,,ms_large,0,134,134,134,1,1.129,0.3,False,None,T06,r2,2021-04-25_15h04.31.806,subsecond_timing_v2,2021.1.2,Win32,59.97361161
space,1.13767,space,0.584265,,,ms_large,0,135,135,135,1,1.165,0.2,False,None,T06,r2,2021-04-25_15h04.31.806,subsecond_timing_v2,2021.1.2,Win32,59.97361161
space,0.781535,space,0.63238,,,ms_large,0,136,136,136,1,0.953,0.1,False,None,T06,r2,2021-04-25_15h04.31.806,subsecond_timing_v2,2021.1.2,Win32,59.97361161
space,0.856005,space,0.551965,,,ms_large,0,137,137,137,1,0.988,0.3,False,None,T06,r2,2021-04-25_15h04.31.806,subsecond_timing_v2,2021.1.2,Win32,59.97361161
space,0.77171,space,0.604405,,,ms_large,0,138,138,138,1,0.847,0.1,False,None,T06,r2,2021-04-25_15h04.31.806,subsecond_timing_v2,2021.1.2,Win32,59.97361161
space,0.82068,space,0.5915,,,ms_large,0,139,139,139,1,0.882,0.1,False,None,T06,r2,2021-04-25_15h04.31.806,subsecond_timing_v2,2021.1.2,Win32,59.97361161
space,0.80454,space,0.737715,,,ms_large,0,140,140,140,1,0.988,0.3,False,None,T06,r2,2021-04-25_15h04.31.806,subsecond_timing_v2,2021.1.2,Win32,59.97361161
space,1.55456,space,0.61095,,,ms_large,0,141,141,141,1,0.953,0.1,False,None,T06,r2,2021-04-25_15h04.31.806,subsecond_timing_v2,2021.1.2,Win32,59.97361161
space,1.867265,space,0.50684,,,ms_large,0,142,142,142,1,1.165,0.2,False,None,T06,r2,2021-04-25_15h04.31.806,subsecond_timing_v2,2021.1.2,Win32,59.97361161
space,0.638025,space,0.99159,,,ms_large,0,143,143,143,1,1.059,0.3,False,None,T06,r2,2021-04-25_15h04.31.806,subsecond_timing_v2,2021.1.2,Win32,59.97361161
space,0.888095,space,1.67524,,,ms_large,0,144,144,144,1,1.2,0.1,False,None,T06,r2,2021-04-25_15h04.31.806,subsecond_timing_v2,2021.1.2,Win32,59.97361161
space,0.91166,space,1.699065,,,ms_large,0,145,145,145,1,1.094,0.2,False,None,T06,r2,2021-04-25_15h04.31.806,subsecond_timing_v2,2021.1.2,Win32,59.97361161
space,0.88594,space,1.437275,,,ms_large,0,146,146,146,1,1.024,0.3,False,None,T06,r2,2021-04-25_15h04.31.806,subsecond_timing_v2,2021.1.2,Win32,59.97361161
space,0.81205,space,1.12389,,,ms_large,0,147,147,147,1,0.918,0.2,False,None,T06,r2,2021-04-25_15h04.31.806,subsecond_timing_v2,2021.1.2,Win32,59.97361161
space,0.604905,space,1.106025,,,ms_large,0,148,148,148,1,1.129,0.3,False,None,T06,r2,2021-04-25_15h04.31.806,subsecond_timing_v2,2021.1.2,Win32,59.97361161
space,0.940195,space,1.38576,,,ms_large,0,149,149,149,1,1.165,0.3,False,None,T06,r2,2021-04-25_15h04.31.806,subsecond_timing_v2,2021.1.2,Win32,59.97361161
space,1.387125,space,1.441045,,,ms_large,0,150,150,150,1,0.882,0.1,False,None,T06,r2,2021-04-25_15h04.31.806,subsecond_timing_v2,2021.1.2,Win32,59.97361161
space,0.721775,space,1.818455,,,ms_large,0,151,151,151,1,1.2,0.2,False,None,T06,r2,2021-04-25_15h04.31.806,subsecond_timing_v2,2021.1.2,Win32,59.97361161
space,0.74773,space,1.541085,,,ms_large,0,152,152,152,1,0.953,0.3,False,None,T06,r2,2021-04-25_15h04.31.806,subsecond_timing_v2,2021.1.2,Win32,59.97361161
space,0.83688,space,1.375085,,,ms_large,0,153,153,153,1,1.059,0.3,False,None,T06,r2,2021-04-25_15h04.31.806,subsecond_timing_v2,2021.1.2,Win32,59.97361161
space,0.91908,space,1.649955,,,ms_large,0,154,154,154,1,0.918,0.2,False,None,T06,r2,2021-04-25_15h04.31.806,subsecond_timing_v2,2021.1.2,Win32,59.97361161
space,1.468605,space,1.216415,,,ms_large,0,155,155,155,1,0.847,0.2,False,None,T06,r2,2021-04-25_15h04.31.806,subsecond_timing_v2,2021.1.2,Win32,59.97361161
space,0.78518,space,1.438605,,,ms_large,0,156,156,156,1,1.129,0.3,False,None,T06,r2,2021-04-25_15h04.31.806,subsecond_timing_v2,2021.1.2,Win32,59.97361161
space,0.725515,space,0.922265,,,ms_large,0,157,157,157,1,1.024,0.1,False,None,T06,r2,2021-04-25_15h04.31.806,subsecond_timing_v2,2021.1.2,Win32,59.97361161
space,0.687245,space,1.24983,,,ms_large,0,158,158,158,1,0.988,0.2,False,None,T06,r2,2021-04-25_15h04.31.806,subsecond_timing_v2,2021.1.2,Win32,59.97361161
space,0.7835,space,1.23524,,,ms_large,0,159,159,159,1,1.094,0.2,False,None,T06,r2,2021-04-25_15h04.31.806,subsecond_timing_v2,2021.1.2,Win32,59.97361161
space,0.822225,space,1.573095,,,ms_large,0,160,160,160,1,1.129,0.2,False,None,T06,r2,2021-04-25_15h04.31.806,subsecond_timing_v2,2021.1.2,Win32,59.97361161
space,0.93824,space,1.44278,,,ms_large,0,161,161,161,1,0.953,0.2,False,None,T06,r2,2021-04-25_15h04.31.806,subsecond_timing_v2,2021.1.2,Win32,59.97361161
space,0.97408,space,1.22491,,,ms_large,0,162,162,162,1,0.847,0.3,False,None,T06,r2,2021-04-25_15h04.31.806,subsecond_timing_v2,2021.1.2,Win32,59.97361161
space,0.70847,space,1.251625,,,ms_large,0,163,163,163,1,0.988,0.1,False,None,T06,r2,2021-04-25_15h04.31.806,subsecond_timing_v2,2021.1.2,Win32,59.97361161
space,0.85127,space,1.05195,,,ms_large,0,164,164,164,1,0.882,0.1,False,None,T06,r2,2021-04-25_15h04.31.806,subsecond_timing_v2,2021.1.2,Win32,59.97361161
space,0.670645,space,1.06373,,,ms_large,0,165,165,165,1,1.094,0.1,False,None,T06,r2,2021-04-25_15h04.31.806,subsecond_timing_v2,2021.1.2,Win32,59.97361161
space,0.755205,space,1.218825,,,ms_large,0,166,166,166,1,0.918,0.2,False,None,T06,r2,2021-04-25_15h04.31.806,subsecond_timing_v2,2021.1.2,Win32,59.97361161
space,0.703915,space,1.16237,,,ms_large,0,167,167,167,1,1.024,0.3,False,None,T06,r2,2021-04-25_15h04.31.806,subsecond_timing_v2,2021.1.2,Win32,59.97361161
space,0.70196,space,1.261245,,,ms_large,0,168,168,168,1,1.059,0.1,False,None,T06,r2,2021-04-25_15h04.31.806,subsecond_timing_v2,2021.1.2,Win32,59.97361161
space,0.761405,space,1.135555,,,ms_large,0,169,169,169,1,1.2,0.3,False,None,T06,r2,2021-04-25_15h04.31.806,subsecond_timing_v2,2021.1.2,Win32,59.97361161
space,0.89202,space,1.3099,,,ms_large,0,170,170,170,1,1.165,0.3,False,None,T06,r2,2021-04-25_15h04.31.806,subsecond_timing_v2,2021.1.2,Win32,59.97361161
space,0.78882,space,1.44088,,,ms_large,0,171,171,171,1,1.094,0.1,False,None,T06,r2,2021-04-25_15h04.31.806,subsecond_timing_v2,2021.1.2,Win32,59.97361161
space,0.860255,space,1.365095,,,ms_large,0,172,172,172,1,1.024,0.1,False,None,T06,r2,2021-04-25_15h04.31.806,subsecond_timing_v2,2021.1.2,Win32,59.97361161
space,0.926845,space,1.26746,,,ms_large,0,173,173,173,1,0.988,0.2,False,None,T06,r2,2021-04-25_15h04.31.806,subsecond_timing_v2,2021.1.2,Win32,59.97361161
space,0.76023,space,1.35064,,,ms_large,0,174,174,174,1,1.165,0.3,False,None,T06,r2,2021-04-25_15h04.31.806,subsecond_timing_v2,2021.1.2,Win32,59.97361161
space,0.918995,space,1.089925,,,ms_large,0,175,175,175,1,0.847,0.1,False,None,T06,r2,2021-04-25_15h04.31.806,subsecond_timing_v2,2021.1.2,Win32,59.97361161
space,0.62343,space,1.122635,,,ms_large,0,176,176,176,1,1.2,0.1,False,None,T06,r2,2021-04-25_15h04.31.806,subsecond_timing_v2,2021.1.2,Win32,59.97361161
space,0.702135,space,1.08499,,,ms_large,0,177,177,177,1,0.882,0.1,False,None,T06,r2,2021-04-25_15h04.31.806,subsecond_timing_v2,2021.1.2,Win32,59.97361161
space,0.79198,space,1.437015,,,ms_large,0,178,178,178,1,1.129,0.1,False,None,T06,r2,2021-04-25_15h04.31.806,subsecond_timing_v2,2021.1.2,Win32,59.97361161
space,0.80228,space,1.269585,,,ms_large,0,179,179,179,1,0.953,0.1,False,None,T06,r2,2021-04-25_15h04.31.806,subsecond_timing_v2,2021.1.2,Win32,59.97361161
space,0.604865,space,1.286325,,,ms_large,0,180,180,180,1,0.918,0.3,False,None,T06,r2,2021-04-25_15h04.31.806,subsecond_timing_v2,2021.1.2,Win32,59.97361161
space,0.64007,space,1.13249,,,ms_large,0,181,181,181,1,1.059,0.2,False,None,T06,r2,2021-04-25_15h04.31.806,subsecond_timing_v2,2021.1.2,Win32,59.97361161
space,0.685385,space,1.240875,,,ms_large,0,182,182,182,1,1.165,0.1,False,None,T06,r2,2021-04-25_15h04.31.806,subsecond_timing_v2,2021.1.2,Win32,59.97361161
space,0.763745,space,1.16923,,,ms_large,0,183,183,183,1,1.024,0.3,False,None,T06,r2,2021-04-25_15h04.31.806,subsecond_timing_v2,2021.1.2,Win32,59.97361161
space,1.09323,space,1.35585,,,ms_large,0,184,184,184,1,1.2,0.2,False,None,T06,r2,2021-04-25_15h04.31.806,subsecond_timing_v2,2021.1.2,Win32,59.97361161
space,0.900415,space,1.20952,,,ms_large,0,185,185,185,1,0.882,0.3,False,None,T06,r2,2021-04-25_15h04.31.806,subsecond_timing_v2,2021.1.2,Win32,59.97361161
space,0.72296,space,1.333595,,,ms_large,0,186,186,186,1,1.129,0.3,False,None,T06,r2,2021-04-25_15h04.31.806,subsecond_timing_v2,2021.1.2,Win32,59.97361161
space,1.25922,space,1.438775,,,ms_large,0,187,187,187,1,0.953,0.1,False,None,T06,r2,2021-04-25_15h04.31.806,subsecond_timing_v2,2021.1.2,Win32,59.97361161
space,1.06037,space,1.403395,,,ms_large,0,188,188,188,1,0.988,0.1,False,None,T06,r2,2021-04-25_15h04.31.806,subsecond_timing_v2,2021.1.2,Win32,59.97361161
space,0.87096,space,1.50406,,,ms_large,0,189,189,189,1,0.918,0.3,False,None,T06,r2,2021-04-25_15h04.31.806,subsecond_timing_v2,2021.1.2,Win32,59.97361161
space,0.874495,space,1.61913,,,ms_large,0,190,190,190,1,1.059,0.2,False,None,T06,r2,2021-04-25_15h04.31.806,subsecond_timing_v2,2021.1.2,Win32,59.97361161
space,0.69168,space,1.026795,,,ms_large,0,191,191,191,1,0.847,0.3,False,None,T06,r2,2021-04-25_15h04.31.806,subsecond_timing_v2,2021.1.2,Win32,59.97361161
space,0.586345,space,1.30243,,,ms_large,0,192,192,192,1,1.094,0.3,False,None,T06,r2,2021-04-25_15h04.31.806,subsecond_timing_v2,2021.1.2,Win32,59.97361161
space,0.70544,space,1.075935,,,ms_large,0,193,193,193,1,0.847,0.1,False,None,T06,r2,2021-04-25_15h04.31.806,subsecond_timing_v2,2021.1.2,Win32,59.97361161
space,0.727165,space,1.050105,,,ms_large,0,194,194,194,1,1.2,0.2,False,None,T06,r2,2021-04-25_15h04.31.806,subsecond_timing_v2,2021.1.2,Win32,59.97361161
space,0.70668,space,1.0357,,,ms_large,0,195,195,195,1,0.918,0.3,False,None,T06,r2,2021-04-25_15h04.31.806,subsecond_timing_v2,2021.1.2,Win32,59.97361161
space,0.53595,space,0.99392,,,ms_large,0,196,196,196,1,1.024,0.2,False,None,T06,r2,2021-04-25_15h04.31.806,subsecond_timing_v2,2021.1.2,Win32,59.97361161
space,0.49164,space,1.0098,,,ms_large,0,197,197,197,1,1.094,0.1,False,None,T06,r2,2021-04-25_15h04.31.806,subsecond_timing_v2,2021.1.2,Win32,59.97361161
space,0.742375,space,1.35334,,,ms_large,0,198,198,198,1,0.953,0.1,False,None,T06,r2,2021-04-25_15h04.31.806,subsecond_timing_v2,2021.1.2,Win32,59.97361161
space,0.79811,space,1.474925,,,ms_large,0,199,199,199,1,1.129,0.3,False,None,T06,r2,2021-04-25_15h04.31.806,subsecond_timing_v2,2021.1.2,Win32,59.97361161
space,0.87154,space,1.467995,,,ms_large,0,200,200,200,1,0.988,0.1,False,None,T06,r2,2021-04-25_15h04.31.806,subsecond_timing_v2,2021.1.2,Win32,59.97361161
space,1.15203,space,1.58543,,,ms_large,0,201,201,201,1,0.882,0.3,False,None,T06,r2,2021-04-25_15h04.31.806,subsecond_timing_v2,2021.1.2,Win32,59.97361161
space,1.192215,space,1.52041,,,ms_large,0,202,202,202,1,1.059,0.3,False,None,T06,r2,2021-04-25_15h04.31.806,subsecond_timing_v2,2021.1.2,Win32,59.97361161
space,0.854035,space,1.635105,,,ms_large,0,203,203,203,1,1.165,0.2,False,None,T06,r2,2021-04-25_15h04.31.806,subsecond_timing_v2,2021.1.2,Win32,59.97361161
space,2.156955,space,1.652845,,,ms_large,0,204,204,204,1,0.953,0.2,False,None,T06,r2,2021-04-25_15h04.31.806,subsecond_timing_v2,2021.1.2,Win32,59.97361161
space,1.102665,space,1.23542,,,ms_large,0,205,205,205,1,1.094,0.3,False,None,T06,r2,2021-04-25_15h04.31.806,subsecond_timing_v2,2021.1.2,Win32,59.97361161
space,1.8778,space,1.770095,,,ms_large,0,206,206,206,1,1.2,0.2,False,None,T06,r2,2021-04-25_15h04.31.806,subsecond_timing_v2,2021.1.2,Win32,59.97361161
space,0.63617,space,1.427215,,,ms_large,0,207,207,207,1,1.024,0.1,False,None,T06,r2,2021-04-25_15h04.31.806,subsecond_timing_v2,2021.1.2,Win32,59.97361161
space,0.73487,space,1.320525,,,ms_large,0,208,208,208,1,0.847,0.3,False,None,T06,r2,2021-04-25_15h04.31.806,subsecond_timing_v2,2021.1.2,Win32,59.97361161
space,0.76602,space,1.20256,,,ms_large,0,209,209,209,1,1.129,0.2,False,None,T06,r2,2021-04-25_15h04.31.806,subsecond_timing_v2,2021.1.2,Win32,59.97361161
space,0.440865,space,1.47034,,,ms_large,0,210,210,210,1,1.165,0.3,False,None,T06,r2,2021-04-25_15h04.31.806,subsecond_timing_v2,2021.1.2,Win32,59.97361161
space,0.669035,space,1.33262,,,ms_large,0,211,211,211,1,0.988,0.3,False,None,T06,r2,2021-04-25_15h04.31.806,subsecond_timing_v2,2021.1.2,Win32,59.97361161
space,0.973305,space,1.353155,,,ms_large,0,212,212,212,1,0.882,0.3,False,None,T06,r2,2021-04-25_15h04.31.806,subsecond_timing_v2,2021.1.2,Win32,59.97361161
space,0.65388,space,1.334435,,,ms_large,0,213,213,213,1,1.059,0.2,False,None,T06,r2,2021-04-25_15h04.31.806,subsecond_timing_v2,2021.1.2,Win32,59.97361161
space,0.78796,space,1.23577,,,ms_large,0,214,214,214,1,0.918,0.3,False,None,T06,r2,2021-04-25_15h04.31.806,subsecond_timing_v2,2021.1.2,Win32,59.97361161
space,0.82313,space,1.006625,,,ms_large,0,215,215,215,1,0.953,0.2,False,None,T06,r2,2021-04-25_15h04.31.806,subsecond_timing_v2,2021.1.2,Win32,59.97361161
space,0.674025,space,0.976535,,,ms_large,0,216,216,216,1,0.847,0.3,False,None,T06,r2,2021-04-25_15h04.31.806,subsecond_timing_v2,2021.1.2,Win32,59.97361161
space,0.704885,space,1.218895,,,ms_large,0,217,217,217,1,1.024,0.1,False,None,T06,r2,2021-04-25_15h04.31.806,subsecond_timing_v2,2021.1.2,Win32,59.97361161
space,0.70262,space,1.01819,,,ms_large,0,218,218,218,1,1.059,0.3,False,None,T06,r2,2021-04-25_15h04.31.806,subsecond_timing_v2,2021.1.2,Win32,59.97361161
space,0.75948,space,1.116685,,,ms_large,0,219,219,219,1,0.988,0.1,False,None,T06,r2,2021-04-25_15h04.31.806,subsecond_timing_v2,2021.1.2,Win32,59.97361161
space,0.73623,space,1.29578,,,ms_large,0,220,220,220,1,1.094,0.1,False,None,T06,r2,2021-04-25_15h04.31.806,subsecond_timing_v2,2021.1.2,Win32,59.97361161
space,1.28583,space,1.131285,,,ms_large,0,221,221,221,1,0.918,0.3,False,None,T06,r2,2021-04-25_15h04.31.806,subsecond_timing_v2,2021.1.2,Win32,59.97361161
space,1.787115,space,1.101305,,,ms_large,0,222,222,222,1,0.882,0.1,False,None,T06,r2,2021-04-25_15h04.31.806,subsecond_timing_v2,2021.1.2,Win32,59.97361161
space,0.93502,space,1.37155,,,ms_large,0,223,223,223,1,1.129,0.2,False,None,T06,r2,2021-04-25_15h04.31.806,subsecond_timing_v2,2021.1.2,Win32,59.97361161
space,0.80367,space,1.053375,,,ms_large,0,224,224,224,1,1.165,0.3,False,None,T06,r2,2021-04-25_15h04.31.806,subsecond_timing_v2,2021.1.2,Win32,59.97361161
space,1.18545,space,1.487915,,,ms_large,0,225,225,225,1,1.2,0.3,False,None,T06,r2,2021-04-25_15h04.31.806,subsecond_timing_v2,2021.1.2,Win32,59.97361161
