key_resp_start.keys,key_resp_start.rt,key_resp_stop.keys,key_resp_stop.rt,feedback_range,hit,stimulus_range,trials.thisRepN,trials.thisTrialN,trials.thisN,trials.thisIndex,trials.ran,stimulus_duration,onset,feedback,feedback_range_fromfile,participant,session,date,expName,psychopyVersion,OS,frameRate
space,1.20275,space,0.663965,0.3,FALSE,Training,0,0,0,0,1,1,0.3,True,0.3,T07,r1,2021-04-25_12h53.44.841,subsecond_timing_v2,2021.1.2,Win32,59.93766483
space,0.606815,space,0.61867,0.3,TRUE,Training,0,1,1,1,1,0.75,0.1,True,0.3,T07,r1,2021-04-25_12h53.44.841,subsecond_timing_v2,2021.1.2,Win32,59.93766483
space,0.65201,space,0.435615,0.3,TRUE,Training,0,2,2,2,1,0.5,0.1,True,0.3,T07,r1,2021-04-25_12h53.44.841,subsecond_timing_v2,2021.1.2,Win32,59.93766483
space,0.638965,space,0.5207,0.3,TRUE,Training,0,3,3,3,1,0.5,0.2,True,0.3,T07,r1,2021-04-25_12h53.44.841,subsecond_timing_v2,2021.1.2,Win32,59.93766483
space,0.680365,space,0.608005,0.3,TRUE,Training,0,4,4,4,1,0.75,0.2,True,0.3,T07,r1,2021-04-25_12h53.44.841,subsecond_timing_v2,2021.1.2,Win32,59.93766483
space,1.00175,space,0.700345,0.3,TRUE,Training,0,5,5,5,1,1,0.3,True,0.3,T07,r1,2021-04-25_12h53.44.841,subsecond_timing_v2,2021.1.2,Win32,59.93766483
space,0.85076,space,0.58595,,,ms_small,0,6,6,6,1,0.706,0.2,False,None,T07,r1,2021-04-25_12h53.44.841,subsecond_timing_v2,2021.1.2,Win32,59.93766483
space,0.86769,space,0.73523,,,ms_small,0,7,7,7,1,0.812,0.3,False,None,T07,r1,2021-04-25_12h53.44.841,subsecond_timing_v2,2021.1.2,Win32,59.93766483
space,0.702105,space,0.884865,,,ms_small,0,8,8,8,1,0.847,0.1,False,None,T07,r1,2021-04-25_12h53.44.841,subsecond_timing_v2,2021.1.2,Win32,59.93766483
space,0.67286,space,0.685965,,,ms_small,0,9,9,9,1,0.67,0.3,False,None,T07,r1,2021-04-25_12h53.44.841,subsecond_timing_v2,2021.1.2,Win32,59.93766483
space,0.62537,space,0.71894,,,ms_small,0,10,10,10,1,0.988,0.1,False,None,T07,r1,2021-04-25_12h53.44.841,subsecond_timing_v2,2021.1.2,Win32,59.93766483
space,0.74672,space,0.727155,,,ms_small,0,11,11,11,1,0.953,0.1,False,None,T07,r1,2021-04-25_12h53.44.841,subsecond_timing_v2,2021.1.2,Win32,59.93766483
space,0.81672,space,0.751995,,,ms_small,0,12,12,12,1,0.882,0.3,False,None,T07,r1,2021-04-25_12h53.44.841,subsecond_timing_v2,2021.1.2,Win32,59.93766483
space,0.737435,space,0.802045,,,ms_small,0,13,13,13,1,0.918,0.1,False,None,T07,r1,2021-04-25_12h53.44.841,subsecond_timing_v2,2021.1.2,Win32,59.93766483
space,0.830085,space,0.792735,,,ms_small,0,14,14,14,1,0.776,0.2,False,None,T07,r1,2021-04-25_12h53.44.841,subsecond_timing_v2,2021.1.2,Win32,59.93766483
space,0.90506,space,0.85159,,,ms_small,0,15,15,15,1,0.741,0.3,False,None,T07,r1,2021-04-25_12h53.44.841,subsecond_timing_v2,2021.1.2,Win32,59.93766483
space,1.045985,space,0.852025,,,ms_small,0,16,16,16,1,1.024,0.3,False,None,T07,r1,2021-04-25_12h53.44.841,subsecond_timing_v2,2021.1.2,Win32,59.93766483
space,0.854555,space,0.73526,,,ms_small,0,17,17,17,1,0.67,0.1,False,None,T07,r1,2021-04-25_12h53.44.841,subsecond_timing_v2,2021.1.2,Win32,59.93766483
space,0.938605,space,0.837695,,,ms_small,0,18,18,18,1,0.812,0.3,False,None,T07,r1,2021-04-25_12h53.44.841,subsecond_timing_v2,2021.1.2,Win32,59.93766483
space,0.79421,space,0.75519,,,ms_small,0,19,19,19,1,0.953,0.3,False,None,T07,r1,2021-04-25_12h53.44.841,subsecond_timing_v2,2021.1.2,Win32,59.93766483
space,0.77422,space,0.76842,,,ms_small,0,20,20,20,1,0.776,0.1,False,None,T07,r1,2021-04-25_12h53.44.841,subsecond_timing_v2,2021.1.2,Win32,59.93766483
space,0.797245,space,0.803655,,,ms_small,0,21,21,21,1,0.741,0.2,False,None,T07,r1,2021-04-25_12h53.44.841,subsecond_timing_v2,2021.1.2,Win32,59.93766483
space,0.720705,space,0.75285,,,ms_small,0,22,22,22,1,0.847,0.2,False,None,T07,r1,2021-04-25_12h53.44.841,subsecond_timing_v2,2021.1.2,Win32,59.93766483
space,0.81954,space,0.80173,,,ms_small,0,23,23,23,1,1.024,0.1,False,None,T07,r1,2021-04-25_12h53.44.841,subsecond_timing_v2,2021.1.2,Win32,59.93766483
space,0.758135,space,0.772155,,,ms_small,0,24,24,24,1,0.882,0.3,False,None,T07,r1,2021-04-25_12h53.44.841,subsecond_timing_v2,2021.1.2,Win32,59.93766483
space,0.759285,space,0.82749,,,ms_small,0,25,25,25,1,0.988,0.1,False,None,T07,r1,2021-04-25_12h53.44.841,subsecond_timing_v2,2021.1.2,Win32,59.93766483
space,0.79402,space,0.80321,,,ms_small,0,26,26,26,1,0.706,0.2,False,None,T07,r1,2021-04-25_12h53.44.841,subsecond_timing_v2,2021.1.2,Win32,59.93766483
space,0.93727,space,0.770335,,,ms_small,0,27,27,27,1,0.918,0.3,False,None,T07,r1,2021-04-25_12h53.44.841,subsecond_timing_v2,2021.1.2,Win32,59.93766483
space,1.03301,space,0.725555,,,ms_small,0,28,28,28,1,0.706,0.1,False,None,T07,r1,2021-04-25_12h53.44.841,subsecond_timing_v2,2021.1.2,Win32,59.93766483
space,0.73374,space,0.725425,,,ms_small,0,29,29,29,1,0.918,0.1,False,None,T07,r1,2021-04-25_12h53.44.841,subsecond_timing_v2,2021.1.2,Win32,59.93766483
space,0.825985,space,0.70183,,,ms_small,0,30,30,30,1,0.67,0.2,False,None,T07,r1,2021-04-25_12h53.44.841,subsecond_timing_v2,2021.1.2,Win32,59.93766483
space,0.85114,space,0.808785,,,ms_small,0,31,31,31,1,0.988,0.1,False,None,T07,r1,2021-04-25_12h53.44.841,subsecond_timing_v2,2021.1.2,Win32,59.93766483
space,0.52265,space,0.74458,,,ms_small,0,32,32,32,1,0.953,0.2,False,None,T07,r1,2021-04-25_12h53.44.841,subsecond_timing_v2,2021.1.2,Win32,59.93766483
space,0.950295,space,0.884905,,,ms_small,0,33,33,33,1,0.776,0.1,False,None,T07,r1,2021-04-25_12h53.44.841,subsecond_timing_v2,2021.1.2,Win32,59.93766483
space,0.687665,space,0.78506,,,ms_small,0,34,34,34,1,0.847,0.1,False,None,T07,r1,2021-04-25_12h53.44.841,subsecond_timing_v2,2021.1.2,Win32,59.93766483
space,0.70896,space,0.730545,,,ms_small,0,35,35,35,1,0.741,0.2,False,None,T07,r1,2021-04-25_12h53.44.841,subsecond_timing_v2,2021.1.2,Win32,59.93766483
space,0.822215,space,0.80889,,,ms_small,0,36,36,36,1,0.812,0.1,False,None,T07,r1,2021-04-25_12h53.44.841,subsecond_timing_v2,2021.1.2,Win32,59.93766483
space,0.74479,space,0.791205,,,ms_small,0,37,37,37,1,0.882,0.1,False,None,T07,r1,2021-04-25_12h53.44.841,subsecond_timing_v2,2021.1.2,Win32,59.93766483
space,0.784685,space,0.8535,,,ms_small,0,38,38,38,1,1.024,0.3,False,None,T07,r1,2021-04-25_12h53.44.841,subsecond_timing_v2,2021.1.2,Win32,59.93766483
space,0.236125,space,1.302065,,,ms_small,0,39,39,39,1,0.847,0.2,False,None,T07,r1,2021-04-25_12h53.44.841,subsecond_timing_v2,2021.1.2,Win32,59.93766483
space,0.91223,space,0.857965,,,ms_small,0,40,40,40,1,0.918,0.2,False,None,T07,r1,2021-04-25_12h53.44.841,subsecond_timing_v2,2021.1.2,Win32,59.93766483
space,0.68188,space,0.768535,,,ms_small,0,41,41,41,1,0.953,0.1,False,None,T07,r1,2021-04-25_12h53.44.841,subsecond_timing_v2,2021.1.2,Win32,59.93766483
space,0.75296,space,0.74466,,,ms_small,0,42,42,42,1,0.882,0.3,False,None,T07,r1,2021-04-25_12h53.44.841,subsecond_timing_v2,2021.1.2,Win32,59.93766483
space,0.949385,space,0.75957,,,ms_small,0,43,43,43,1,0.741,0.2,False,None,T07,r1,2021-04-25_12h53.44.841,subsecond_timing_v2,2021.1.2,Win32,59.93766483
space,0.827155,space,0.57558,,,ms_small,0,44,44,44,1,0.67,0.3,False,None,T07,r1,2021-04-25_12h53.44.841,subsecond_timing_v2,2021.1.2,Win32,59.93766483
space,0.62506,space,0.801555,,,ms_small,0,45,45,45,1,0.812,0.2,False,None,T07,r1,2021-04-25_12h53.44.841,subsecond_timing_v2,2021.1.2,Win32,59.93766483
space,0.719755,space,0.8207,,,ms_small,0,46,46,46,1,1.024,0.3,False,None,T07,r1,2021-04-25_12h53.44.841,subsecond_timing_v2,2021.1.2,Win32,59.93766483
space,0.956055,space,0.79122,,,ms_small,0,47,47,47,1,0.706,0.3,False,None,T07,r1,2021-04-25_12h53.44.841,subsecond_timing_v2,2021.1.2,Win32,59.93766483
space,0.78485,space,0.82947,,,ms_small,0,48,48,48,1,0.988,0.2,False,None,T07,r1,2021-04-25_12h53.44.841,subsecond_timing_v2,2021.1.2,Win32,59.93766483
space,0.70539,space,0.668515,,,ms_small,0,49,49,49,1,0.776,0.1,False,None,T07,r1,2021-04-25_12h53.44.841,subsecond_timing_v2,2021.1.2,Win32,59.93766483
space,0.634935,space,0.85336,,,ms_small,0,50,50,50,1,0.988,0.1,False,None,T07,r1,2021-04-25_12h53.44.841,subsecond_timing_v2,2021.1.2,Win32,59.93766483
space,0.668255,space,0.58865,,,ms_small,0,51,51,51,1,0.706,0.3,False,None,T07,r1,2021-04-25_12h53.44.841,subsecond_timing_v2,2021.1.2,Win32,59.93766483
space,0.651635,space,0.88959,,,ms_small,0,52,52,52,1,0.953,0.2,False,None,T07,r1,2021-04-25_12h53.44.841,subsecond_timing_v2,2021.1.2,Win32,59.93766483
space,0.884725,space,0.790325,,,ms_small,0,53,53,53,1,0.847,0.2,False,None,T07,r1,2021-04-25_12h53.44.841,subsecond_timing_v2,2021.1.2,Win32,59.93766483
space,0.75081,space,0.83589,,,ms_small,0,54,54,54,1,0.918,0.3,False,None,T07,r1,2021-04-25_12h53.44.841,subsecond_timing_v2,2021.1.2,Win32,59.93766483
space,0.801705,space,0.617945,,,ms_small,0,55,55,55,1,0.741,0.1,False,None,T07,r1,2021-04-25_12h53.44.841,subsecond_timing_v2,2021.1.2,Win32,59.93766483
space,0.72323,space,0.535205,,,ms_small,0,56,56,56,1,0.67,0.1,False,None,T07,r1,2021-04-25_12h53.44.841,subsecond_timing_v2,2021.1.2,Win32,59.93766483
space,0.61896,space,0.60985,,,ms_small,0,57,57,57,1,0.776,0.2,False,None,T07,r1,2021-04-25_12h53.44.841,subsecond_timing_v2,2021.1.2,Win32,59.93766483
space,0.623795,space,0.678595,,,ms_small,0,58,58,58,1,0.882,0.1,False,None,T07,r1,2021-04-25_12h53.44.841,subsecond_timing_v2,2021.1.2,Win32,59.93766483
space,0.752405,space,0.52598,,,ms_small,0,59,59,59,1,0.812,0.2,False,None,T07,r1,2021-04-25_12h53.44.841,subsecond_timing_v2,2021.1.2,Win32,59.93766483
space,0.802175,space,0.743885,,,ms_small,0,60,60,60,1,1.024,0.2,False,None,T07,r1,2021-04-25_12h53.44.841,subsecond_timing_v2,2021.1.2,Win32,59.93766483
space,0.75604,space,0.606845,,,ms_small,0,61,61,61,1,0.847,0.3,False,None,T07,r1,2021-04-25_12h53.44.841,subsecond_timing_v2,2021.1.2,Win32,59.93766483
space,0.935895,space,0.634985,,,ms_small,0,62,62,62,1,0.67,0.1,False,None,T07,r1,2021-04-25_12h53.44.841,subsecond_timing_v2,2021.1.2,Win32,59.93766483
space,0.882995,space,0.636695,,,ms_small,0,63,63,63,1,0.988,0.3,False,None,T07,r1,2021-04-25_12h53.44.841,subsecond_timing_v2,2021.1.2,Win32,59.93766483
space,0.771715,space,0.72705,,,ms_small,0,64,64,64,1,0.812,0.1,False,None,T07,r1,2021-04-25_12h53.44.841,subsecond_timing_v2,2021.1.2,Win32,59.93766483
space,0.75711,space,0.755015,,,ms_small,0,65,65,65,1,0.882,0.3,False,None,T07,r1,2021-04-25_12h53.44.841,subsecond_timing_v2,2021.1.2,Win32,59.93766483
space,0.969275,space,0.84342,,,ms_small,0,66,66,66,1,0.918,0.1,False,None,T07,r1,2021-04-25_12h53.44.841,subsecond_timing_v2,2021.1.2,Win32,59.93766483
space,0.72281,space,0.73737,,,ms_small,0,67,67,67,1,1.024,0.1,False,None,T07,r1,2021-04-25_12h53.44.841,subsecond_timing_v2,2021.1.2,Win32,59.93766483
space,0.823545,space,0.873495,,,ms_small,0,68,68,68,1,0.776,0.2,False,None,T07,r1,2021-04-25_12h53.44.841,subsecond_timing_v2,2021.1.2,Win32,59.93766483
space,0.69975,space,0.87048,,,ms_small,0,69,69,69,1,0.953,0.1,False,None,T07,r1,2021-04-25_12h53.44.841,subsecond_timing_v2,2021.1.2,Win32,59.93766483
space,0.688415,space,0.761025,,,ms_small,0,70,70,70,1,0.706,0.1,False,None,T07,r1,2021-04-25_12h53.44.841,subsecond_timing_v2,2021.1.2,Win32,59.93766483
space,0.80343,space,0.802375,,,ms_small,0,71,71,71,1,0.741,0.3,False,None,T07,r1,2021-04-25_12h53.44.841,subsecond_timing_v2,2021.1.2,Win32,59.93766483
space,0.839625,space,0.773965,,,ms_small,0,72,72,72,1,0.882,0.2,False,None,T07,r1,2021-04-25_12h53.44.841,subsecond_timing_v2,2021.1.2,Win32,59.93766483
space,0.6483,space,0.69323,,,ms_small,0,73,73,73,1,0.918,0.3,False,None,T07,r1,2021-04-25_12h53.44.841,subsecond_timing_v2,2021.1.2,Win32,59.93766483
space,0.55882,space,0.65191,,,ms_small,0,74,74,74,1,0.988,0.2,False,None,T07,r1,2021-04-25_12h53.44.841,subsecond_timing_v2,2021.1.2,Win32,59.93766483
space,0.682825,space,0.7591,,,ms_small,0,75,75,75,1,0.67,0.1,False,None,T07,r1,2021-04-25_12h53.44.841,subsecond_timing_v2,2021.1.2,Win32,59.93766483
space,0.693595,space,0.79607,,,ms_small,0,76,76,76,1,0.776,0.3,False,None,T07,r1,2021-04-25_12h53.44.841,subsecond_timing_v2,2021.1.2,Win32,59.93766483
space,0.928675,space,0.78421,,,ms_small,0,78,78,78,1,1.024,0.2,False,None,T07,r1,2021-04-25_12h53.44.841,subsecond_timing_v2,2021.1.2,Win32,59.93766483
space,0.768575,space,0.77141,,,ms_small,0,79,79,79,1,0.812,0.3,False,None,T07,r1,2021-04-25_12h53.44.841,subsecond_timing_v2,2021.1.2,Win32,59.93766483
space,0.8231,space,0.950995,,,ms_small,0,80,80,80,1,0.953,0.1,False,None,T07,r1,2021-04-25_12h53.44.841,subsecond_timing_v2,2021.1.2,Win32,59.93766483
space,1.209135,space,0.671945,,,ms_small,0,81,81,81,1,0.706,0.2,False,None,T07,r1,2021-04-25_12h53.44.841,subsecond_timing_v2,2021.1.2,Win32,59.93766483
space,0.71876,space,0.562615,,,ms_small,0,82,82,82,1,0.741,0.3,False,None,T07,r1,2021-04-25_12h53.44.841,subsecond_timing_v2,2021.1.2,Win32,59.93766483
space,0.639335,space,0.634555,,,ms_small,0,83,83,83,1,0.706,0.1,False,None,T07,r1,2021-04-25_12h53.44.841,subsecond_timing_v2,2021.1.2,Win32,59.93766483
space,0.647895,space,0.7583,,,ms_small,0,84,84,84,1,0.812,0.2,False,None,T07,r1,2021-04-25_12h53.44.841,subsecond_timing_v2,2021.1.2,Win32,59.93766483
space,0.746235,space,0.68839,,,ms_small,0,85,85,85,1,0.882,0.2,False,None,T07,r1,2021-04-25_12h53.44.841,subsecond_timing_v2,2021.1.2,Win32,59.93766483
space,0.801965,space,0.59265,,,ms_small,0,86,86,86,1,0.776,0.1,False,None,T07,r1,2021-04-25_12h53.44.841,subsecond_timing_v2,2021.1.2,Win32,59.93766483
space,0.86906,space,0.689935,,,ms_small,0,87,87,87,1,0.988,0.3,False,None,T07,r1,2021-04-25_12h53.44.841,subsecond_timing_v2,2021.1.2,Win32,59.93766483
space,0.64294,space,0.544545,,,ms_small,0,88,88,88,1,0.67,0.2,False,None,T07,r1,2021-04-25_12h53.44.841,subsecond_timing_v2,2021.1.2,Win32,59.93766483
space,0.687535,space,0.60208,,,ms_small,0,89,89,89,1,0.741,0.3,False,None,T07,r1,2021-04-25_12h53.44.841,subsecond_timing_v2,2021.1.2,Win32,59.93766483
space,0.90111,space,0.701725,,,ms_small,0,90,90,90,1,0.918,0.1,False,None,T07,r1,2021-04-25_12h53.44.841,subsecond_timing_v2,2021.1.2,Win32,59.93766483
space,0.696305,space,0.853125,,,ms_small,0,91,91,91,1,0.847,0.3,False,None,T07,r1,2021-04-25_12h53.44.841,subsecond_timing_v2,2021.1.2,Win32,59.93766483
space,0.797685,space,0.67078,,,ms_small,0,92,92,92,1,0.953,0.2,False,None,T07,r1,2021-04-25_12h53.44.841,subsecond_timing_v2,2021.1.2,Win32,59.93766483
space,0.7545,space,0.944085,,,ms_small,0,93,93,93,1,1.024,0.2,False,None,T07,r1,2021-04-25_12h53.44.841,subsecond_timing_v2,2021.1.2,Win32,59.93766483
space,0.82914,space,0.768865,,,ms_small,0,94,94,94,1,0.882,0.1,False,None,T07,r1,2021-04-25_12h53.44.841,subsecond_timing_v2,2021.1.2,Win32,59.93766483
space,0.785745,space,0.7052,,,ms_small,0,95,95,95,1,0.67,0.2,False,None,T07,r1,2021-04-25_12h53.44.841,subsecond_timing_v2,2021.1.2,Win32,59.93766483
space,0.80025,space,0.80174,,,ms_small,0,96,96,96,1,0.918,0.3,False,None,T07,r1,2021-04-25_12h53.44.841,subsecond_timing_v2,2021.1.2,Win32,59.93766483
space,0.790525,space,0.691715,,,ms_small,0,97,97,97,1,0.706,0.2,False,None,T07,r1,2021-04-25_12h53.44.841,subsecond_timing_v2,2021.1.2,Win32,59.93766483
space,0.85333,space,0.75446,,,ms_small,0,98,98,98,1,0.988,0.1,False,None,T07,r1,2021-04-25_12h53.44.841,subsecond_timing_v2,2021.1.2,Win32,59.93766483
space,0.6351,space,0.634845,,,ms_small,0,99,99,99,1,0.741,0.3,False,None,T07,r1,2021-04-25_12h53.44.841,subsecond_timing_v2,2021.1.2,Win32,59.93766483
space,0.685225,space,0.795845,,,ms_small,0,100,100,100,1,1.024,0.2,False,None,T07,r1,2021-04-25_12h53.44.841,subsecond_timing_v2,2021.1.2,Win32,59.93766483
space,0.6896,space,0.709995,,,ms_small,0,101,101,101,1,0.776,0.2,False,None,T07,r1,2021-04-25_12h53.44.841,subsecond_timing_v2,2021.1.2,Win32,59.93766483
space,0.829425,space,0.558335,,,ms_small,0,102,102,102,1,0.812,0.2,False,None,T07,r1,2021-04-25_12h53.44.841,subsecond_timing_v2,2021.1.2,Win32,59.93766483
space,0.718555,space,0.68576,,,ms_small,0,103,103,103,1,0.953,0.2,False,None,T07,r1,2021-04-25_12h53.44.841,subsecond_timing_v2,2021.1.2,Win32,59.93766483
space,0.73268,space,0.70767,,,ms_small,0,104,104,104,1,0.847,0.1,False,None,T07,r1,2021-04-25_12h53.44.841,subsecond_timing_v2,2021.1.2,Win32,59.93766483
space,0.636585,space,0.70105,,,ms_small,0,105,105,105,1,0.706,0.2,False,None,T07,r1,2021-04-25_12h53.44.841,subsecond_timing_v2,2021.1.2,Win32,59.93766483
space,0.518975,space,0.72584,,,ms_small,0,106,106,106,1,0.741,0.1,False,None,T07,r1,2021-04-25_12h53.44.841,subsecond_timing_v2,2021.1.2,Win32,59.93766483
space,0.003175,space,1.23446,,,ms_small,0,107,107,107,1,0.67,0.1,False,None,T07,r1,2021-04-25_12h53.44.841,subsecond_timing_v2,2021.1.2,Win32,59.93766483
space,0.73141,space,0.635325,,,ms_small,0,108,108,108,1,0.847,0.1,False,None,T07,r1,2021-04-25_12h53.44.841,subsecond_timing_v2,2021.1.2,Win32,59.93766483
space,0.83771,space,0.527085,,,ms_small,0,109,109,109,1,0.812,0.2,False,None,T07,r1,2021-04-25_12h53.44.841,subsecond_timing_v2,2021.1.2,Win32,59.93766483
space,0.76941,space,0.644705,,,ms_small,0,110,110,110,1,0.776,0.3,False,None,T07,r1,2021-04-25_12h53.44.841,subsecond_timing_v2,2021.1.2,Win32,59.93766483
space,0.80356,space,0.73506,,,ms_small,0,111,111,111,1,0.988,0.3,False,None,T07,r1,2021-04-25_12h53.44.841,subsecond_timing_v2,2021.1.2,Win32,59.93766483
space,0.76659,space,0.63943,,,ms_small,0,112,112,112,1,0.918,0.1,False,None,T07,r1,2021-04-25_12h53.44.841,subsecond_timing_v2,2021.1.2,Win32,59.93766483
space,0.782515,space,0.65193,,,ms_small,0,113,113,113,1,0.882,0.1,False,None,T07,r1,2021-04-25_12h53.44.841,subsecond_timing_v2,2021.1.2,Win32,59.93766483
space,0.768715,space,0.64348,,,ms_small,0,114,114,114,1,1.024,0.2,False,None,T07,r1,2021-04-25_12h53.44.841,subsecond_timing_v2,2021.1.2,Win32,59.93766483
space,0.90402,space,0.63524,,,ms_small,0,115,115,115,1,0.953,0.2,False,None,T07,r1,2021-04-25_12h53.44.841,subsecond_timing_v2,2021.1.2,Win32,59.93766483
space,0.770585,space,0.70353,,,ms_small,0,116,116,116,1,0.847,0.3,False,None,T07,r1,2021-04-25_12h53.44.841,subsecond_timing_v2,2021.1.2,Win32,59.93766483
space,1.003925,space,0.75613,,,ms_small,0,117,117,117,1,0.882,0.2,False,None,T07,r1,2021-04-25_12h53.44.841,subsecond_timing_v2,2021.1.2,Win32,59.93766483
space,0.84287,space,0.935975,,,ms_small,0,118,118,118,1,1.024,0.1,False,None,T07,r1,2021-04-25_12h53.44.841,subsecond_timing_v2,2021.1.2,Win32,59.93766483
space,0.71624,space,0.52383,,,ms_small,0,119,119,119,1,0.706,0.2,False,None,T07,r1,2021-04-25_12h53.44.841,subsecond_timing_v2,2021.1.2,Win32,59.93766483
space,0.76691,space,0.74301,,,ms_small,0,120,120,120,1,0.918,0.1,False,None,T07,r1,2021-04-25_12h53.44.841,subsecond_timing_v2,2021.1.2,Win32,59.93766483
space,0.71825,space,0.735125,,,ms_small,0,121,121,121,1,0.776,0.1,False,None,T07,r1,2021-04-25_12h53.44.841,subsecond_timing_v2,2021.1.2,Win32,59.93766483
space,0.75137,space,0.75039,,,ms_small,0,122,122,122,1,0.953,0.3,False,None,T07,r1,2021-04-25_12h53.44.841,subsecond_timing_v2,2021.1.2,Win32,59.93766483
space,0.82157,space,0.749655,,,ms_small,0,123,123,123,1,0.67,0.1,False,None,T07,r1,2021-04-25_12h53.44.841,subsecond_timing_v2,2021.1.2,Win32,59.93766483
space,0.66564,space,0.836005,,,ms_small,0,124,124,124,1,0.812,0.2,False,None,T07,r1,2021-04-25_12h53.44.841,subsecond_timing_v2,2021.1.2,Win32,59.93766483
space,0.916935,space,0.80103,,,ms_small,0,125,125,125,1,0.988,0.2,False,None,T07,r1,2021-04-25_12h53.44.841,subsecond_timing_v2,2021.1.2,Win32,59.93766483
space,0.83695,space,0.59333,,,ms_small,0,126,126,126,1,0.741,0.3,False,None,T07,r1,2021-04-25_12h53.44.841,subsecond_timing_v2,2021.1.2,Win32,59.93766483
space,0.752755,space,0.968565,,,ms_small,0,127,127,127,1,0.67,0.1,False,None,T07,r1,2021-04-25_12h53.44.841,subsecond_timing_v2,2021.1.2,Win32,59.93766483
space,0.76937,space,0.703095,,,ms_small,0,128,128,128,1,0.776,0.3,False,None,T07,r1,2021-04-25_12h53.44.841,subsecond_timing_v2,2021.1.2,Win32,59.93766483
space,0.73878,space,0.57719,,,ms_small,0,129,129,129,1,0.847,0.1,False,None,T07,r1,2021-04-25_12h53.44.841,subsecond_timing_v2,2021.1.2,Win32,59.93766483
space,0.73673,space,0.68512,,,ms_small,0,130,130,130,1,0.812,0.1,False,None,T07,r1,2021-04-25_12h53.44.841,subsecond_timing_v2,2021.1.2,Win32,59.93766483
space,0.72936,space,0.769235,,,ms_small,0,131,131,131,1,0.882,0.1,False,None,T07,r1,2021-04-25_12h53.44.841,subsecond_timing_v2,2021.1.2,Win32,59.93766483
space,0.95178,space,0.68841,,,ms_small,0,132,132,132,1,1.024,0.2,False,None,T07,r1,2021-04-25_12h53.44.841,subsecond_timing_v2,2021.1.2,Win32,59.93766483
space,0.78539,space,0.79252,,,ms_small,0,133,133,133,1,0.953,0.3,False,None,T07,r1,2021-04-25_12h53.44.841,subsecond_timing_v2,2021.1.2,Win32,59.93766483
space,0.65388,space,0.787505,,,ms_small,0,134,134,134,1,0.988,0.2,False,None,T07,r1,2021-04-25_12h53.44.841,subsecond_timing_v2,2021.1.2,Win32,59.93766483
space,0.59018,space,0.471835,,,ms_small,0,135,135,135,1,0.706,0.1,False,None,T07,r1,2021-04-25_12h53.44.841,subsecond_timing_v2,2021.1.2,Win32,59.93766483
space,0.86872,space,0.66829,,,ms_small,0,136,136,136,1,0.918,0.1,False,None,T07,r1,2021-04-25_12h53.44.841,subsecond_timing_v2,2021.1.2,Win32,59.93766483
space,0.83455,space,0.841535,,,ms_small,0,137,137,137,1,0.741,0.1,False,None,T07,r1,2021-04-25_12h53.44.841,subsecond_timing_v2,2021.1.2,Win32,59.93766483
space,0.735505,space,0.701595,,,ms_small,0,138,138,138,1,0.741,0.3,False,None,T07,r1,2021-04-25_12h53.44.841,subsecond_timing_v2,2021.1.2,Win32,59.93766483
space,0.668505,space,0.839085,,,ms_small,0,139,139,139,1,0.988,0.2,False,None,T07,r1,2021-04-25_12h53.44.841,subsecond_timing_v2,2021.1.2,Win32,59.93766483
space,0.75451,space,0.63386,,,ms_small,0,140,140,140,1,0.812,0.3,False,None,T07,r1,2021-04-25_12h53.44.841,subsecond_timing_v2,2021.1.2,Win32,59.93766483
space,0.785615,space,0.75677,,,ms_small,0,141,141,141,1,0.918,0.2,False,None,T07,r1,2021-04-25_12h53.44.841,subsecond_timing_v2,2021.1.2,Win32,59.93766483
space,0.701505,space,0.70191,,,ms_small,0,142,142,142,1,0.847,0.2,False,None,T07,r1,2021-04-25_12h53.44.841,subsecond_timing_v2,2021.1.2,Win32,59.93766483
space,0.785715,space,0.561,,,ms_small,0,143,143,143,1,0.953,0.1,False,None,T07,r1,2021-04-25_12h53.44.841,subsecond_timing_v2,2021.1.2,Win32,59.93766483
space,0.701855,space,0.64261,,,ms_small,0,144,144,144,1,0.776,0.3,False,None,T07,r1,2021-04-25_12h53.44.841,subsecond_timing_v2,2021.1.2,Win32,59.93766483
space,0.80017,space,0.659755,,,ms_small,0,145,145,145,1,0.706,0.3,False,None,T07,r1,2021-04-25_12h53.44.841,subsecond_timing_v2,2021.1.2,Win32,59.93766483
space,0.64965,space,0.7192,,,ms_small,0,146,146,146,1,1.024,0.1,False,None,T07,r1,2021-04-25_12h53.44.841,subsecond_timing_v2,2021.1.2,Win32,59.93766483
space,0.60574,space,0.90369,,,ms_small,0,147,147,147,1,0.882,0.2,False,None,T07,r1,2021-04-25_12h53.44.841,subsecond_timing_v2,2021.1.2,Win32,59.93766483
space,0.612975,space,0.91857,,,ms_small,0,148,148,148,1,0.67,0.3,False,None,T07,r1,2021-04-25_12h53.44.841,subsecond_timing_v2,2021.1.2,Win32,59.93766483
space,0.8791,space,0.785245,,,ms_small,0,149,149,149,1,0.67,0.3,False,None,T07,r1,2021-04-25_12h53.44.841,subsecond_timing_v2,2021.1.2,Win32,59.93766483
space,0.625915,space,0.77043,,,ms_small,0,150,150,150,1,0.741,0.3,False,None,T07,r1,2021-04-25_12h53.44.841,subsecond_timing_v2,2021.1.2,Win32,59.93766483
space,0.793445,space,0.9422,,,ms_small,0,151,151,151,1,0.918,0.1,False,None,T07,r1,2021-04-25_12h53.44.841,subsecond_timing_v2,2021.1.2,Win32,59.93766483
space,0.661,space,0.725125,,,ms_small,0,152,152,152,1,0.706,0.3,False,None,T07,r1,2021-04-25_12h53.44.841,subsecond_timing_v2,2021.1.2,Win32,59.93766483
space,0.6955,space,0.8018,,,ms_small,0,153,153,153,1,0.988,0.2,False,None,T07,r1,2021-04-25_12h53.44.841,subsecond_timing_v2,2021.1.2,Win32,59.93766483
space,0.786115,space,0.935105,,,ms_small,0,154,154,154,1,0.847,0.2,False,None,T07,r1,2021-04-25_12h53.44.841,subsecond_timing_v2,2021.1.2,Win32,59.93766483
space,0.790025,space,0.923275,,,ms_small,0,155,155,155,1,0.776,0.3,False,None,T07,r1,2021-04-25_12h53.44.841,subsecond_timing_v2,2021.1.2,Win32,59.93766483
space,0.661875,space,0.79544,,,ms_small,0,156,156,156,1,0.882,0.2,False,None,T07,r1,2021-04-25_12h53.44.841,subsecond_timing_v2,2021.1.2,Win32,59.93766483
space,0.864785,space,0.69536,,,ms_small,0,157,157,157,1,0.812,0.1,False,None,T07,r1,2021-04-25_12h53.44.841,subsecond_timing_v2,2021.1.2,Win32,59.93766483
space,0.784925,space,0.852595,,,ms_small,0,158,158,158,1,1.024,0.1,False,None,T07,r1,2021-04-25_12h53.44.841,subsecond_timing_v2,2021.1.2,Win32,59.93766483
space,0.690585,space,0.98369,,,ms_small,0,159,159,159,1,0.953,0.2,False,None,T07,r1,2021-04-25_12h53.44.841,subsecond_timing_v2,2021.1.2,Win32,59.93766483
space,0.800455,space,0.678195,,,ms_small,0,160,160,160,1,0.812,0.2,False,None,T07,r1,2021-04-25_12h53.44.841,subsecond_timing_v2,2021.1.2,Win32,59.93766483
space,0.767525,space,0.633415,,,ms_small,0,161,161,161,1,0.67,0.1,False,None,T07,r1,2021-04-25_12h53.44.841,subsecond_timing_v2,2021.1.2,Win32,59.93766483
space,0.67261,space,0.850755,,,ms_small,0,162,162,162,1,0.953,0.1,False,None,T07,r1,2021-04-25_12h53.44.841,subsecond_timing_v2,2021.1.2,Win32,59.93766483
space,0.865995,space,0.59355,,,ms_small,0,163,163,163,1,0.882,0.3,False,None,T07,r1,2021-04-25_12h53.44.841,subsecond_timing_v2,2021.1.2,Win32,59.93766483
space,0.766925,space,0.91837,,,ms_small,0,164,164,164,1,0.988,0.1,False,None,T07,r1,2021-04-25_12h53.44.841,subsecond_timing_v2,2021.1.2,Win32,59.93766483
space,0.78759,space,0.65153,,,ms_small,0,165,165,165,1,0.706,0.1,False,None,T07,r1,2021-04-25_12h53.44.841,subsecond_timing_v2,2021.1.2,Win32,59.93766483
space,0.71764,space,1.001655,,,ms_small,0,166,166,166,1,1.024,0.3,False,None,T07,r1,2021-04-25_12h53.44.841,subsecond_timing_v2,2021.1.2,Win32,59.93766483
space,0.73336,space,0.694195,,,ms_small,0,167,167,167,1,0.847,0.3,False,None,T07,r1,2021-04-25_12h53.44.841,subsecond_timing_v2,2021.1.2,Win32,59.93766483
space,0.899955,space,0.67086,,,ms_small,0,168,168,168,1,0.741,0.3,False,None,T07,r1,2021-04-25_12h53.44.841,subsecond_timing_v2,2021.1.2,Win32,59.93766483
space,0.70245,space,0.902095,,,ms_small,0,169,169,169,1,0.918,0.2,False,None,T07,r1,2021-04-25_12h53.44.841,subsecond_timing_v2,2021.1.2,Win32,59.93766483
space,0.761325,space,0.793585,,,ms_small,0,170,170,170,1,0.776,0.1,False,None,T07,r1,2021-04-25_12h53.44.841,subsecond_timing_v2,2021.1.2,Win32,59.93766483
space,0.80228,space,0.770905,,,ms_small,0,171,171,171,1,0.882,0.3,False,None,T07,r1,2021-04-25_12h53.44.841,subsecond_timing_v2,2021.1.2,Win32,59.93766483
space,0.787075,space,0.75565,,,ms_small,0,172,172,172,1,0.741,0.1,False,None,T07,r1,2021-04-25_12h53.44.841,subsecond_timing_v2,2021.1.2,Win32,59.93766483
space,0.80566,space,0.86687,,,ms_small,0,173,173,173,1,0.988,0.1,False,None,T07,r1,2021-04-25_12h53.44.841,subsecond_timing_v2,2021.1.2,Win32,59.93766483
space,0.619535,space,0.726345,,,ms_small,0,174,174,174,1,0.706,0.2,False,None,T07,r1,2021-04-25_12h53.44.841,subsecond_timing_v2,2021.1.2,Win32,59.93766483
space,0.81357,space,0.88686,,,ms_small,0,175,175,175,1,0.918,0.2,False,None,T07,r1,2021-04-25_12h53.44.841,subsecond_timing_v2,2021.1.2,Win32,59.93766483
space,0.78271,space,0.71806,,,ms_small,0,176,176,176,1,0.953,0.2,False,None,T07,r1,2021-04-25_12h53.44.841,subsecond_timing_v2,2021.1.2,Win32,59.93766483
space,0.714295,space,0.76891,,,ms_small,0,177,177,177,1,0.67,0.2,False,None,T07,r1,2021-04-25_12h53.44.841,subsecond_timing_v2,2021.1.2,Win32,59.93766483
space,0.60834,space,0.927085,,,ms_small,0,178,178,178,1,0.847,0.3,False,None,T07,r1,2021-04-25_12h53.44.841,subsecond_timing_v2,2021.1.2,Win32,59.93766483
space,0.90209,space,0.8015,,,ms_small,0,179,179,179,1,0.776,0.1,False,None,T07,r1,2021-04-25_12h53.44.841,subsecond_timing_v2,2021.1.2,Win32,59.93766483
space,0.74028,space,0.984475,,,ms_small,0,180,180,180,1,0.812,0.1,False,None,T07,r1,2021-04-25_12h53.44.841,subsecond_timing_v2,2021.1.2,Win32,59.93766483
space,0.69344,space,1.212095,,,ms_small,0,181,181,181,1,1.024,0.2,False,None,T07,r1,2021-04-25_12h53.44.841,subsecond_timing_v2,2021.1.2,Win32,59.93766483
space,0.651895,space,0.668235,,,ms_small,0,182,182,182,1,0.706,0.3,False,None,T07,r1,2021-04-25_12h53.44.841,subsecond_timing_v2,2021.1.2,Win32,59.93766483
space,0.852785,space,0.954915,,,ms_small,0,183,183,183,1,0.988,0.1,False,None,T07,r1,2021-04-25_12h53.44.841,subsecond_timing_v2,2021.1.2,Win32,59.93766483
space,0.83315,space,0.79398,,,ms_small,0,184,184,184,1,1.024,0.3,False,None,T07,r1,2021-04-25_12h53.44.841,subsecond_timing_v2,2021.1.2,Win32,59.93766483
space,0.8027,space,0.66329,,,ms_small,0,185,185,185,1,0.847,0.1,False,None,T07,r1,2021-04-25_12h53.44.841,subsecond_timing_v2,2021.1.2,Win32,59.93766483
space,0.72033,space,0.804595,,,ms_small,0,186,186,186,1,0.741,0.1,False,None,T07,r1,2021-04-25_12h53.44.841,subsecond_timing_v2,2021.1.2,Win32,59.93766483
space,0.818135,space,0.736585,,,ms_small,0,187,187,187,1,0.776,0.3,False,None,T07,r1,2021-04-25_12h53.44.841,subsecond_timing_v2,2021.1.2,Win32,59.93766483
space,0.735395,space,0.72069,,,ms_small,0,188,188,188,1,0.812,0.3,False,None,T07,r1,2021-04-25_12h53.44.841,subsecond_timing_v2,2021.1.2,Win32,59.93766483
space,0.69731,space,0.851835,,,ms_small,0,189,189,189,1,0.918,0.3,False,None,T07,r1,2021-04-25_12h53.44.841,subsecond_timing_v2,2021.1.2,Win32,59.93766483
space,0.85236,space,0.829215,,,ms_small,0,190,190,190,1,0.67,0.1,False,None,T07,r1,2021-04-25_12h53.44.841,subsecond_timing_v2,2021.1.2,Win32,59.93766483
space,0.76863,space,1.02081,,,ms_small,0,191,191,191,1,0.882,0.2,False,None,T07,r1,2021-04-25_12h53.44.841,subsecond_timing_v2,2021.1.2,Win32,59.93766483
space,1.1282,space,0.791985,,,ms_small,0,192,192,192,1,0.953,0.1,False,None,T07,r1,2021-04-25_12h53.44.841,subsecond_timing_v2,2021.1.2,Win32,59.93766483
space,0.08156,space,1.00193,,,ms_small,0,193,193,193,1,0.776,0.1,False,None,T07,r1,2021-04-25_12h53.44.841,subsecond_timing_v2,2021.1.2,Win32,59.93766483
space,0.685555,space,1.055665,,,ms_small,0,194,194,194,1,0.988,0.3,False,None,T07,r1,2021-04-25_12h53.44.841,subsecond_timing_v2,2021.1.2,Win32,59.93766483
space,0.751845,space,0.98544,,,ms_small,0,195,195,195,1,0.953,0.1,False,None,T07,r1,2021-04-25_12h53.44.841,subsecond_timing_v2,2021.1.2,Win32,59.93766483
space,0.691805,space,0.65193,,,ms_small,0,196,196,196,1,0.741,0.3,False,None,T07,r1,2021-04-25_12h53.44.841,subsecond_timing_v2,2021.1.2,Win32,59.93766483
space,0.68164,space,0.575775,,,ms_small,0,197,197,197,1,0.67,0.3,False,None,T07,r1,2021-04-25_12h53.44.841,subsecond_timing_v2,2021.1.2,Win32,59.93766483
space,0.6626,space,0.759975,,,ms_small,0,198,198,198,1,0.847,0.3,False,None,T07,r1,2021-04-25_12h53.44.841,subsecond_timing_v2,2021.1.2,Win32,59.93766483
space,0.70517,space,0.668915,,,ms_small,0,199,199,199,1,0.882,0.2,False,None,T07,r1,2021-04-25_12h53.44.841,subsecond_timing_v2,2021.1.2,Win32,59.93766483
space,0.705205,space,0.669055,,,ms_small,0,200,200,200,1,0.706,0.3,False,None,T07,r1,2021-04-25_12h53.44.841,subsecond_timing_v2,2021.1.2,Win32,59.93766483
space,0.65755,space,0.53482,,,ms_small,0,201,201,201,1,0.812,0.1,False,None,T07,r1,2021-04-25_12h53.44.841,subsecond_timing_v2,2021.1.2,Win32,59.93766483
space,0.68251,space,0.75225,,,ms_small,0,202,202,202,1,1.024,0.2,False,None,T07,r1,2021-04-25_12h53.44.841,subsecond_timing_v2,2021.1.2,Win32,59.93766483
space,0.828885,space,1.137025,,,ms_small,0,203,203,203,1,0.918,0.1,False,None,T07,r1,2021-04-25_12h53.44.841,subsecond_timing_v2,2021.1.2,Win32,59.93766483
space,0.76785,space,0.968635,,,ms_small,0,204,204,204,1,0.776,0.2,False,None,T07,r1,2021-04-25_12h53.44.841,subsecond_timing_v2,2021.1.2,Win32,59.93766483
space,0.76979,space,0.61866,,,ms_small,0,205,205,205,1,0.67,0.1,False,None,T07,r1,2021-04-25_12h53.44.841,subsecond_timing_v2,2021.1.2,Win32,59.93766483
space,0.794985,space,0.70534,,,ms_small,0,206,206,206,1,0.706,0.3,False,None,T07,r1,2021-04-25_12h53.44.841,subsecond_timing_v2,2021.1.2,Win32,59.93766483
space,0.682895,space,1.052005,,,ms_small,0,207,207,207,1,0.988,0.2,False,None,T07,r1,2021-04-25_12h53.44.841,subsecond_timing_v2,2021.1.2,Win32,59.93766483
space,0.76124,space,0.702115,,,ms_small,0,208,208,208,1,0.847,0.3,False,None,T07,r1,2021-04-25_12h53.44.841,subsecond_timing_v2,2021.1.2,Win32,59.93766483
space,0.89466,space,0.684515,,,ms_small,0,209,209,209,1,0.953,0.2,False,None,T07,r1,2021-04-25_12h53.44.841,subsecond_timing_v2,2021.1.2,Win32,59.93766483
space,0.767875,space,0.891545,,,ms_small,0,210,210,210,1,0.812,0.1,False,None,T07,r1,2021-04-25_12h53.44.841,subsecond_timing_v2,2021.1.2,Win32,59.93766483
space,0.887985,space,0.95207,,,ms_small,0,211,211,211,1,0.918,0.1,False,None,T07,r1,2021-04-25_12h53.44.841,subsecond_timing_v2,2021.1.2,Win32,59.93766483
space,0.77928,space,0.629755,,,ms_small,0,212,212,212,1,0.741,0.3,False,None,T07,r1,2021-04-25_12h53.44.841,subsecond_timing_v2,2021.1.2,Win32,59.93766483
space,0.75251,space,0.751965,,,ms_small,0,213,213,213,1,0.882,0.3,False,None,T07,r1,2021-04-25_12h53.44.841,subsecond_timing_v2,2021.1.2,Win32,59.93766483
space,0.744825,space,0.71867,,,ms_small,0,214,214,214,1,1.024,0.1,False,None,T07,r1,2021-04-25_12h53.44.841,subsecond_timing_v2,2021.1.2,Win32,59.93766483
space,0.868265,space,0.77101,,,ms_small,0,215,215,215,1,1.024,0.2,False,None,T07,r1,2021-04-25_12h53.44.841,subsecond_timing_v2,2021.1.2,Win32,59.93766483
space,0.635735,space,0.738915,,,ms_small,0,216,216,216,1,0.706,0.2,False,None,T07,r1,2021-04-25_12h53.44.841,subsecond_timing_v2,2021.1.2,Win32,59.93766483
space,0.65403,space,0.668885,,,ms_small,0,217,217,217,1,0.882,0.1,False,None,T07,r1,2021-04-25_12h53.44.841,subsecond_timing_v2,2021.1.2,Win32,59.93766483
space,0.751655,space,0.685335,,,ms_small,0,218,218,218,1,0.776,0.2,False,None,T07,r1,2021-04-25_12h53.44.841,subsecond_timing_v2,2021.1.2,Win32,59.93766483
space,0.69896,space,0.685475,,,ms_small,0,219,219,219,1,0.847,0.2,False,None,T07,r1,2021-04-25_12h53.44.841,subsecond_timing_v2,2021.1.2,Win32,59.93766483
space,0.679795,space,0.868865,,,ms_small,0,220,220,220,1,0.812,0.1,False,None,T07,r1,2021-04-25_12h53.44.841,subsecond_timing_v2,2021.1.2,Win32,59.93766483
space,0.700025,space,0.91836,,,ms_small,0,221,221,221,1,0.988,0.1,False,None,T07,r1,2021-04-25_12h53.44.841,subsecond_timing_v2,2021.1.2,Win32,59.93766483
space,0.67255,space,0.74601,,,ms_small,0,222,222,222,1,0.918,0.1,False,None,T07,r1,2021-04-25_12h53.44.841,subsecond_timing_v2,2021.1.2,Win32,59.93766483
space,0.85894,space,0.818405,,,ms_small,0,223,223,223,1,0.67,0.2,False,None,T07,r1,2021-04-25_12h53.44.841,subsecond_timing_v2,2021.1.2,Win32,59.93766483
space,0.80186,space,0.63572,,,ms_small,0,224,224,224,1,0.741,0.3,False,None,T07,r1,2021-04-25_12h53.44.841,subsecond_timing_v2,2021.1.2,Win32,59.93766483
space,0.751795,space,0.84455,,,ms_small,0,225,225,225,1,0.953,0.1,False,None,T07,r1,2021-04-25_12h53.44.841,subsecond_timing_v2,2021.1.2,Win32,59.93766483
