key_resp_start.keys,key_resp_start.rt,key_resp_stop.keys,key_resp_stop.rt,feedback_range,hit,stimulus_range,trials.thisRepN,trials.thisTrialN,trials.thisN,trials.thisIndex,trials.ran,stimulus_duration,onset,feedback,feedback_range_fromfile,participant,session,date,expName,psychopyVersion,OS,frameRate
space,0.85133,space,1.03551,0.3,TRUE,Training,0,0,0,0,1,1,0.3,True,0.3,T09,r1,2021-04-25_15h24.03.244,subsecond_timing_v2,2021.1.2,MacIntel,60.0024001
space,0.762185,space,0.684405,0.3,TRUE,Training,0,1,1,1,1,0.75,0.1,True,0.3,T09,r1,2021-04-25_15h24.03.244,subsecond_timing_v2,2021.1.2,MacIntel,60.0024001
space,0.711455,space,0.483335,0.3,TRUE,Training,0,2,2,2,1,0.5,0.1,True,0.3,T09,r1,2021-04-25_15h24.03.244,subsecond_timing_v2,2021.1.2,MacIntel,60.0024001
space,0.720035,space,0.61843,0.3,TRUE,Training,0,3,3,3,1,0.5,0.2,True,0.3,T09,r1,2021-04-25_15h24.03.244,subsecond_timing_v2,2021.1.2,MacIntel,60.0024001
space,0.75032,space,0.916315,0.3,TRUE,Training,0,4,4,4,1,0.75,0.2,True,0.3,T09,r1,2021-04-25_15h24.03.244,subsecond_timing_v2,2021.1.2,MacIntel,60.0024001
space,0.699915,space,0.98408,0.3,TRUE,Training,0,5,5,5,1,1,0.3,True,0.3,T09,r1,2021-04-25_15h24.03.244,subsecond_timing_v2,2021.1.2,MacIntel,60.0024001
space,0.783845,space,0.73358,,,ms_small,0,6,6,6,1,0.706,0.2,False,None,T09,r1,2021-04-25_15h24.03.244,subsecond_timing_v2,2021.1.2,MacIntel,60.0024001
space,0.750115,space,0.900275,,,ms_small,0,7,7,7,1,0.812,0.3,False,None,T09,r1,2021-04-25_15h24.03.244,subsecond_timing_v2,2021.1.2,MacIntel,60.0024001
space,0.868845,space,1.133925,,,ms_small,0,8,8,8,1,0.847,0.1,False,None,T09,r1,2021-04-25_15h24.03.244,subsecond_timing_v2,2021.1.2,MacIntel,60.0024001
space,0.93609,space,1.08435,,,ms_small,0,9,9,9,1,0.67,0.3,False,None,T09,r1,2021-04-25_15h24.03.244,subsecond_timing_v2,2021.1.2,MacIntel,60.0024001
space,0.88399,space,1.10149,,,ms_small,0,10,10,10,1,0.988,0.1,False,None,T09,r1,2021-04-25_15h24.03.244,subsecond_timing_v2,2021.1.2,MacIntel,60.0024001
space,0.86689,space,1.15016,,,ms_small,0,11,11,11,1,0.953,0.1,False,None,T09,r1,2021-04-25_15h24.03.244,subsecond_timing_v2,2021.1.2,MacIntel,60.0024001
space,0.90039,space,1.05076,,,ms_small,0,12,12,12,1,0.882,0.3,False,None,T09,r1,2021-04-25_15h24.03.244,subsecond_timing_v2,2021.1.2,MacIntel,60.0024001
space,0.85056,space,1.05088,,,ms_small,0,13,13,13,1,0.918,0.1,False,None,T09,r1,2021-04-25_15h24.03.244,subsecond_timing_v2,2021.1.2,MacIntel,60.0024001
space,0.968215,space,1.05109,,,ms_small,0,14,14,14,1,0.776,0.2,False,None,T09,r1,2021-04-25_15h24.03.244,subsecond_timing_v2,2021.1.2,MacIntel,60.0024001
space,0.83655,space,1.11733,,,ms_small,0,15,15,15,1,0.741,0.3,False,None,T09,r1,2021-04-25_15h24.03.244,subsecond_timing_v2,2021.1.2,MacIntel,60.0024001
space,0.934285,space,1.13496,,,ms_small,0,16,16,16,1,1.024,0.3,False,None,T09,r1,2021-04-25_15h24.03.244,subsecond_timing_v2,2021.1.2,MacIntel,60.0024001
space,0.71767,space,1.00089,,,ms_small,0,17,17,17,1,0.67,0.1,False,None,T09,r1,2021-04-25_15h24.03.244,subsecond_timing_v2,2021.1.2,MacIntel,60.0024001
space,0.835045,space,1.017405,,,ms_small,0,18,18,18,1,0.812,0.3,False,None,T09,r1,2021-04-25_15h24.03.244,subsecond_timing_v2,2021.1.2,MacIntel,60.0024001
space,0.83419,space,1.051115,,,ms_small,0,19,19,19,1,0.953,0.3,False,None,T09,r1,2021-04-25_15h24.03.244,subsecond_timing_v2,2021.1.2,MacIntel,60.0024001
space,0.95088,space,1.035125,,,ms_small,0,20,20,20,1,0.776,0.1,False,None,T09,r1,2021-04-25_15h24.03.244,subsecond_timing_v2,2021.1.2,MacIntel,60.0024001
space,0.81688,space,1.117345,,,ms_small,0,21,21,21,1,0.741,0.2,False,None,T09,r1,2021-04-25_15h24.03.244,subsecond_timing_v2,2021.1.2,MacIntel,60.0024001
space,0.887535,space,1.000375,,,ms_small,0,22,22,22,1,0.847,0.2,False,None,T09,r1,2021-04-25_15h24.03.244,subsecond_timing_v2,2021.1.2,MacIntel,60.0024001
space,0.81737,space,0.986095,,,ms_small,0,23,23,23,1,1.024,0.1,False,None,T09,r1,2021-04-25_15h24.03.244,subsecond_timing_v2,2021.1.2,MacIntel,60.0024001
space,0.91893,space,1.11661,,,ms_small,0,24,24,24,1,0.882,0.3,False,None,T09,r1,2021-04-25_15h24.03.244,subsecond_timing_v2,2021.1.2,MacIntel,60.0024001
space,0.91764,space,0.98819,,,ms_small,0,25,25,25,1,0.988,0.1,False,None,T09,r1,2021-04-25_15h24.03.244,subsecond_timing_v2,2021.1.2,MacIntel,60.0024001
space,0.88439,space,1.05328,,,ms_small,0,26,26,26,1,0.706,0.2,False,None,T09,r1,2021-04-25_15h24.03.244,subsecond_timing_v2,2021.1.2,MacIntel,60.0024001
space,0.850995,space,1.21905,,,ms_small,0,27,27,27,1,0.918,0.3,False,None,T09,r1,2021-04-25_15h24.03.244,subsecond_timing_v2,2021.1.2,MacIntel,60.0024001
space,0.96731,space,1.050355,,,ms_small,0,28,28,28,1,0.706,0.1,False,None,T09,r1,2021-04-25_15h24.03.244,subsecond_timing_v2,2021.1.2,MacIntel,60.0024001
space,0.78621,space,1.3191,,,ms_small,0,29,29,29,1,0.918,0.1,False,None,T09,r1,2021-04-25_15h24.03.244,subsecond_timing_v2,2021.1.2,MacIntel,60.0024001
space,1.11686,space,1.084265,,,ms_small,0,30,30,30,1,0.67,0.2,False,None,T09,r1,2021-04-25_15h24.03.244,subsecond_timing_v2,2021.1.2,MacIntel,60.0024001
space,0.850375,space,1.13467,,,ms_small,0,31,31,31,1,0.988,0.1,False,None,T09,r1,2021-04-25_15h24.03.244,subsecond_timing_v2,2021.1.2,MacIntel,60.0024001
space,0.71702,space,1.01736,,,ms_small,0,32,32,32,1,0.953,0.2,False,None,T09,r1,2021-04-25_15h24.03.244,subsecond_timing_v2,2021.1.2,MacIntel,60.0024001
space,0.98442,space,0.983465,,,ms_small,0,33,33,33,1,0.776,0.1,False,None,T09,r1,2021-04-25_15h24.03.244,subsecond_timing_v2,2021.1.2,MacIntel,60.0024001
space,1.0511,space,1.000135,,,ms_small,0,34,34,34,1,0.847,0.1,False,None,T09,r1,2021-04-25_15h24.03.244,subsecond_timing_v2,2021.1.2,MacIntel,60.0024001
space,1.037955,space,1.08587,,,ms_small,0,35,35,35,1,0.741,0.2,False,None,T09,r1,2021-04-25_15h24.03.244,subsecond_timing_v2,2021.1.2,MacIntel,60.0024001
space,0.933945,space,1.253155,,,ms_small,0,36,36,36,1,0.812,0.1,False,None,T09,r1,2021-04-25_15h24.03.244,subsecond_timing_v2,2021.1.2,MacIntel,60.0024001
space,0.70025,space,1.35086,,,ms_small,0,37,37,37,1,0.882,0.1,False,None,T09,r1,2021-04-25_15h24.03.244,subsecond_timing_v2,2021.1.2,MacIntel,60.0024001
space,0.867135,space,1.083155,,,ms_small,0,38,38,38,1,1.024,0.3,False,None,T09,r1,2021-04-25_15h24.03.244,subsecond_timing_v2,2021.1.2,MacIntel,60.0024001
space,1.001115,space,1.16748,,,ms_small,0,39,39,39,1,0.847,0.2,False,None,T09,r1,2021-04-25_15h24.03.244,subsecond_timing_v2,2021.1.2,MacIntel,60.0024001
space,1.08431,space,1.184275,,,ms_small,0,40,40,40,1,0.918,0.2,False,None,T09,r1,2021-04-25_15h24.03.244,subsecond_timing_v2,2021.1.2,MacIntel,60.0024001
space,0.968365,space,1.28428,,,ms_small,0,41,41,41,1,0.953,0.1,False,None,T09,r1,2021-04-25_15h24.03.244,subsecond_timing_v2,2021.1.2,MacIntel,60.0024001
space,0.76778,space,1.13407,,,ms_small,0,42,42,42,1,0.882,0.3,False,None,T09,r1,2021-04-25_15h24.03.244,subsecond_timing_v2,2021.1.2,MacIntel,60.0024001
space,0.816805,space,1.1005,,,ms_small,0,43,43,43,1,0.741,0.2,False,None,T09,r1,2021-04-25_15h24.03.244,subsecond_timing_v2,2021.1.2,MacIntel,60.0024001
space,0.901115,space,1.0179,,,ms_small,0,44,44,44,1,0.67,0.3,False,None,T09,r1,2021-04-25_15h24.03.244,subsecond_timing_v2,2021.1.2,MacIntel,60.0024001
space,0.917905,space,1.137335,,,ms_small,0,45,45,45,1,0.812,0.2,False,None,T09,r1,2021-04-25_15h24.03.244,subsecond_timing_v2,2021.1.2,MacIntel,60.0024001
space,0.8193,space,1.01779,,,ms_small,0,46,46,46,1,1.024,0.3,False,None,T09,r1,2021-04-25_15h24.03.244,subsecond_timing_v2,2021.1.2,MacIntel,60.0024001
space,1.083345,space,1.000395,,,ms_small,0,47,47,47,1,0.706,0.3,False,None,T09,r1,2021-04-25_15h24.03.244,subsecond_timing_v2,2021.1.2,MacIntel,60.0024001
space,0.98314,space,0.952345,,,ms_small,0,48,48,48,1,0.988,0.2,False,None,T09,r1,2021-04-25_15h24.03.244,subsecond_timing_v2,2021.1.2,MacIntel,60.0024001
space,0.87024,space,0.98434,,,ms_small,0,49,49,49,1,0.776,0.1,False,None,T09,r1,2021-04-25_15h24.03.244,subsecond_timing_v2,2021.1.2,MacIntel,60.0024001
space,0.80033,space,0.951795,,,ms_small,0,50,50,50,1,0.988,0.1,False,None,T09,r1,2021-04-25_15h24.03.244,subsecond_timing_v2,2021.1.2,MacIntel,60.0024001
space,1.03387,space,0.95107,,,ms_small,0,51,51,51,1,0.706,0.3,False,None,T09,r1,2021-04-25_15h24.03.244,subsecond_timing_v2,2021.1.2,MacIntel,60.0024001
space,1.000425,space,0.99985,,,ms_small,0,52,52,52,1,0.953,0.2,False,None,T09,r1,2021-04-25_15h24.03.244,subsecond_timing_v2,2021.1.2,MacIntel,60.0024001
space,1.33377,space,1.09995,,,ms_small,0,53,53,53,1,0.847,0.2,False,None,T09,r1,2021-04-25_15h24.03.244,subsecond_timing_v2,2021.1.2,MacIntel,60.0024001
space,1.283935,space,1.217775,,,ms_small,0,54,54,54,1,0.918,0.3,False,None,T09,r1,2021-04-25_15h24.03.244,subsecond_timing_v2,2021.1.2,MacIntel,60.0024001
space,0.85354,space,1.03419,,,ms_small,0,55,55,55,1,0.741,0.1,False,None,T09,r1,2021-04-25_15h24.03.244,subsecond_timing_v2,2021.1.2,MacIntel,60.0024001
space,0.98374,space,0.96702,,,ms_small,0,56,56,56,1,0.67,0.1,False,None,T09,r1,2021-04-25_15h24.03.244,subsecond_timing_v2,2021.1.2,MacIntel,60.0024001
space,1.100365,space,1.101645,,,ms_small,0,57,57,57,1,0.776,0.2,False,None,T09,r1,2021-04-25_15h24.03.244,subsecond_timing_v2,2021.1.2,MacIntel,60.0024001
space,0.83446,space,1.084335,,,ms_small,0,58,58,58,1,0.882,0.1,False,None,T09,r1,2021-04-25_15h24.03.244,subsecond_timing_v2,2021.1.2,MacIntel,60.0024001
space,1.001415,space,1.150735,,,ms_small,0,59,59,59,1,0.812,0.2,False,None,T09,r1,2021-04-25_15h24.03.244,subsecond_timing_v2,2021.1.2,MacIntel,60.0024001
space,1.01756,space,1.169705,,,ms_small,0,60,60,60,1,1.024,0.2,False,None,T09,r1,2021-04-25_15h24.03.244,subsecond_timing_v2,2021.1.2,MacIntel,60.0024001
space,0.78387,space,1.201195,,,ms_small,0,61,61,61,1,0.847,0.3,False,None,T09,r1,2021-04-25_15h24.03.244,subsecond_timing_v2,2021.1.2,MacIntel,60.0024001
space,0.91748,space,0.720075,,,ms_small,0,62,62,62,1,0.67,0.1,False,None,T09,r1,2021-04-25_15h24.03.244,subsecond_timing_v2,2021.1.2,MacIntel,60.0024001
space,0.784985,space,1.01657,,,ms_small,0,63,63,63,1,0.988,0.3,False,None,T09,r1,2021-04-25_15h24.03.244,subsecond_timing_v2,2021.1.2,MacIntel,60.0024001
space,0.850595,space,1.050425,,,ms_small,0,64,64,64,1,0.812,0.1,False,None,T09,r1,2021-04-25_15h24.03.244,subsecond_timing_v2,2021.1.2,MacIntel,60.0024001
space,0.76759,space,1.03345,,,ms_small,0,65,65,65,1,0.882,0.3,False,None,T09,r1,2021-04-25_15h24.03.244,subsecond_timing_v2,2021.1.2,MacIntel,60.0024001
space,0.76738,space,0.901005,,,ms_small,0,66,66,66,1,0.918,0.1,False,None,T09,r1,2021-04-25_15h24.03.244,subsecond_timing_v2,2021.1.2,MacIntel,60.0024001
space,0.80106,space,1.134185,,,ms_small,0,67,67,67,1,1.024,0.1,False,None,T09,r1,2021-04-25_15h24.03.244,subsecond_timing_v2,2021.1.2,MacIntel,60.0024001
space,0.984515,space,1.11815,,,ms_small,0,68,68,68,1,0.776,0.2,False,None,T09,r1,2021-04-25_15h24.03.244,subsecond_timing_v2,2021.1.2,MacIntel,60.0024001
space,0.883205,space,1.08705,,,ms_small,0,69,69,69,1,0.953,0.1,False,None,T09,r1,2021-04-25_15h24.03.244,subsecond_timing_v2,2021.1.2,MacIntel,60.0024001
space,0.86832,space,0.885495,,,ms_small,0,70,70,70,1,0.706,0.1,False,None,T09,r1,2021-04-25_15h24.03.244,subsecond_timing_v2,2021.1.2,MacIntel,60.0024001
space,0.78412,space,0.834355,,,ms_small,0,71,71,71,1,0.741,0.3,False,None,T09,r1,2021-04-25_15h24.03.244,subsecond_timing_v2,2021.1.2,MacIntel,60.0024001
space,0.687865,space,0.95062,,,ms_small,0,72,72,72,1,0.882,0.2,False,None,T09,r1,2021-04-25_15h24.03.244,subsecond_timing_v2,2021.1.2,MacIntel,60.0024001
space,0.61714,space,1.2338,,,ms_small,0,73,73,73,1,0.918,0.3,False,None,T09,r1,2021-04-25_15h24.03.244,subsecond_timing_v2,2021.1.2,MacIntel,60.0024001
space,0.78322,space,1.06657,,,ms_small,0,74,74,74,1,0.988,0.2,False,None,T09,r1,2021-04-25_15h24.03.244,subsecond_timing_v2,2021.1.2,MacIntel,60.0024001
space,0.783955,space,1.101155,,,ms_small,0,75,75,75,1,0.67,0.1,False,None,T09,r1,2021-04-25_15h24.03.244,subsecond_timing_v2,2021.1.2,MacIntel,60.0024001
space,0.65289,space,1.10273,,,ms_small,0,76,76,76,1,0.776,0.3,False,None,T09,r1,2021-04-25_15h24.03.244,subsecond_timing_v2,2021.1.2,MacIntel,60.0024001
space,0.834475,space,0.98374,,,ms_small,0,77,77,77,1,0.847,0.2,False,None,T09,r1,2021-04-25_15h24.03.244,subsecond_timing_v2,2021.1.2,MacIntel,60.0024001
space,0.63417,space,1.050115,,,ms_small,0,78,78,78,1,1.024,0.2,False,None,T09,r1,2021-04-25_15h24.03.244,subsecond_timing_v2,2021.1.2,MacIntel,60.0024001
space,0.81659,space,0.95123,,,ms_small,0,79,79,79,1,0.812,0.3,False,None,T09,r1,2021-04-25_15h24.03.244,subsecond_timing_v2,2021.1.2,MacIntel,60.0024001
space,0.91754,space,1.11746,,,ms_small,0,80,80,80,1,0.953,0.1,False,None,T09,r1,2021-04-25_15h24.03.244,subsecond_timing_v2,2021.1.2,MacIntel,60.0024001
space,0.951205,space,1.13521,,,ms_small,0,81,81,81,1,0.706,0.2,False,None,T09,r1,2021-04-25_15h24.03.244,subsecond_timing_v2,2021.1.2,MacIntel,60.0024001
space,0.75216,space,1.017675,,,ms_small,0,82,82,82,1,0.741,0.3,False,None,T09,r1,2021-04-25_15h24.03.244,subsecond_timing_v2,2021.1.2,MacIntel,60.0024001
space,1.033975,space,1.16624,,,ms_small,0,83,83,83,1,0.706,0.1,False,None,T09,r1,2021-04-25_15h24.03.244,subsecond_timing_v2,2021.1.2,MacIntel,60.0024001
space,0.80122,space,1.200575,,,ms_small,0,84,84,84,1,0.812,0.2,False,None,T09,r1,2021-04-25_15h24.03.244,subsecond_timing_v2,2021.1.2,MacIntel,60.0024001
space,0.817255,space,1.084365,,,ms_small,0,85,85,85,1,0.882,0.2,False,None,T09,r1,2021-04-25_15h24.03.244,subsecond_timing_v2,2021.1.2,MacIntel,60.0024001
space,0.95096,space,1.15114,,,ms_small,0,86,86,86,1,0.776,0.1,False,None,T09,r1,2021-04-25_15h24.03.244,subsecond_timing_v2,2021.1.2,MacIntel,60.0024001
space,0.867905,space,1.134165,,,ms_small,0,87,87,87,1,0.988,0.3,False,None,T09,r1,2021-04-25_15h24.03.244,subsecond_timing_v2,2021.1.2,MacIntel,60.0024001
space,0.70317,space,1.26914,,,ms_small,0,88,88,88,1,0.67,0.2,False,None,T09,r1,2021-04-25_15h24.03.244,subsecond_timing_v2,2021.1.2,MacIntel,60.0024001
space,0.734255,space,1.18409,,,ms_small,0,89,89,89,1,0.741,0.3,False,None,T09,r1,2021-04-25_15h24.03.244,subsecond_timing_v2,2021.1.2,MacIntel,60.0024001
space,0.551185,space,1.15066,,,ms_small,0,90,90,90,1,0.918,0.1,False,None,T09,r1,2021-04-25_15h24.03.244,subsecond_timing_v2,2021.1.2,MacIntel,60.0024001
space,0.967215,space,1.14994,,,ms_small,0,91,91,91,1,0.847,0.3,False,None,T09,r1,2021-04-25_15h24.03.244,subsecond_timing_v2,2021.1.2,MacIntel,60.0024001
space,0.91764,space,1.13404,,,ms_small,0,92,92,92,1,0.953,0.2,False,None,T09,r1,2021-04-25_15h24.03.244,subsecond_timing_v2,2021.1.2,MacIntel,60.0024001
space,0.93435,space,0.96669,,,ms_small,0,93,93,93,1,1.024,0.2,False,None,T09,r1,2021-04-25_15h24.03.244,subsecond_timing_v2,2021.1.2,MacIntel,60.0024001
space,0.970315,space,1.18452,,,ms_small,0,94,94,94,1,0.882,0.1,False,None,T09,r1,2021-04-25_15h24.03.244,subsecond_timing_v2,2021.1.2,MacIntel,60.0024001
space,1.10307,space,1.300895,,,ms_small,0,95,95,95,1,0.67,0.2,False,None,T09,r1,2021-04-25_15h24.03.244,subsecond_timing_v2,2021.1.2,MacIntel,60.0024001
space,0.90152,space,1.25293,,,ms_small,0,96,96,96,1,0.918,0.3,False,None,T09,r1,2021-04-25_15h24.03.244,subsecond_timing_v2,2021.1.2,MacIntel,60.0024001
space,0.933505,space,1.23427,,,ms_small,0,97,97,97,1,0.706,0.2,False,None,T09,r1,2021-04-25_15h24.03.244,subsecond_timing_v2,2021.1.2,MacIntel,60.0024001
space,0.95343,space,1.36693,,,ms_small,0,98,98,98,1,0.988,0.1,False,None,T09,r1,2021-04-25_15h24.03.244,subsecond_timing_v2,2021.1.2,MacIntel,60.0024001
space,0.934575,space,1.150615,,,ms_small,0,99,99,99,1,0.741,0.3,False,None,T09,r1,2021-04-25_15h24.03.244,subsecond_timing_v2,2021.1.2,MacIntel,60.0024001
space,0.83384,space,1.167615,,,ms_small,0,100,100,100,1,1.024,0.2,False,None,T09,r1,2021-04-25_15h24.03.244,subsecond_timing_v2,2021.1.2,MacIntel,60.0024001
space,0.884275,space,1.217475,,,ms_small,0,101,101,101,1,0.776,0.2,False,None,T09,r1,2021-04-25_15h24.03.244,subsecond_timing_v2,2021.1.2,MacIntel,60.0024001
space,0.75071,space,1.103535,,,ms_small,0,102,102,102,1,0.812,0.2,False,None,T09,r1,2021-04-25_15h24.03.244,subsecond_timing_v2,2021.1.2,MacIntel,60.0024001
space,0.78424,space,1.16845,,,ms_small,0,103,103,103,1,0.953,0.2,False,None,T09,r1,2021-04-25_15h24.03.244,subsecond_timing_v2,2021.1.2,MacIntel,60.0024001
space,0.850725,space,1.15106,,,ms_small,0,104,104,104,1,0.847,0.1,False,None,T09,r1,2021-04-25_15h24.03.244,subsecond_timing_v2,2021.1.2,MacIntel,60.0024001
space,0.800595,space,1.217505,,,ms_small,0,105,105,105,1,0.706,0.2,False,None,T09,r1,2021-04-25_15h24.03.244,subsecond_timing_v2,2021.1.2,MacIntel,60.0024001
space,0.800535,space,0.950965,,,ms_small,0,106,106,106,1,0.741,0.1,False,None,T09,r1,2021-04-25_15h24.03.244,subsecond_timing_v2,2021.1.2,MacIntel,60.0024001
space,0.850755,space,1.154445,,,ms_small,0,107,107,107,1,0.67,0.1,False,None,T09,r1,2021-04-25_15h24.03.244,subsecond_timing_v2,2021.1.2,MacIntel,60.0024001
space,0.73687,space,0.933885,,,ms_small,0,108,108,108,1,0.847,0.1,False,None,T09,r1,2021-04-25_15h24.03.244,subsecond_timing_v2,2021.1.2,MacIntel,60.0024001
space,0.66883,space,1.001165,,,ms_small,0,109,109,109,1,0.812,0.2,False,None,T09,r1,2021-04-25_15h24.03.244,subsecond_timing_v2,2021.1.2,MacIntel,60.0024001
space,0.617125,space,0.970775,,,ms_small,0,110,110,110,1,0.776,0.3,False,None,T09,r1,2021-04-25_15h24.03.244,subsecond_timing_v2,2021.1.2,MacIntel,60.0024001
space,0.851465,space,1.117865,,,ms_small,0,111,111,111,1,0.988,0.3,False,None,T09,r1,2021-04-25_15h24.03.244,subsecond_timing_v2,2021.1.2,MacIntel,60.0024001
space,0.81874,space,1.219035,,,ms_small,0,112,112,112,1,0.918,0.1,False,None,T09,r1,2021-04-25_15h24.03.244,subsecond_timing_v2,2021.1.2,MacIntel,60.0024001
space,1.084205,space,1.31753,,,ms_small,0,113,113,113,1,0.882,0.1,False,None,T09,r1,2021-04-25_15h24.03.244,subsecond_timing_v2,2021.1.2,MacIntel,60.0024001
space,0.716975,space,1.333925,,,ms_small,0,114,114,114,1,1.024,0.2,False,None,T09,r1,2021-04-25_15h24.03.244,subsecond_timing_v2,2021.1.2,MacIntel,60.0024001
space,1.10122,space,1.082925,,,ms_small,0,115,115,115,1,0.953,0.2,False,None,T09,r1,2021-04-25_15h24.03.244,subsecond_timing_v2,2021.1.2,MacIntel,60.0024001
space,0.85037,space,1.23358,,,ms_small,0,116,116,116,1,0.847,0.3,False,None,T09,r1,2021-04-25_15h24.03.244,subsecond_timing_v2,2021.1.2,MacIntel,60.0024001
space,0.834495,space,1.134625,,,ms_small,0,117,117,117,1,0.882,0.2,False,None,T09,r1,2021-04-25_15h24.03.244,subsecond_timing_v2,2021.1.2,MacIntel,60.0024001
space,0.83797,space,1.16907,,,ms_small,0,118,118,118,1,1.024,0.1,False,None,T09,r1,2021-04-25_15h24.03.244,subsecond_timing_v2,2021.1.2,MacIntel,60.0024001
space,0.850875,space,1.23409,,,ms_small,0,119,119,119,1,0.706,0.2,False,None,T09,r1,2021-04-25_15h24.03.244,subsecond_timing_v2,2021.1.2,MacIntel,60.0024001
space,0.91786,space,1.21774,,,ms_small,0,120,120,120,1,0.918,0.1,False,None,T09,r1,2021-04-25_15h24.03.244,subsecond_timing_v2,2021.1.2,MacIntel,60.0024001
space,1.03737,space,1.300885,,,ms_small,0,121,121,121,1,0.776,0.1,False,None,T09,r1,2021-04-25_15h24.03.244,subsecond_timing_v2,2021.1.2,MacIntel,60.0024001
space,0.867505,space,1.35152,,,ms_small,0,122,122,122,1,0.953,0.3,False,None,T09,r1,2021-04-25_15h24.03.244,subsecond_timing_v2,2021.1.2,MacIntel,60.0024001
space,1.501125,space,1.284255,,,ms_small,0,123,123,123,1,0.67,0.1,False,None,T09,r1,2021-04-25_15h24.03.244,subsecond_timing_v2,2021.1.2,MacIntel,60.0024001
space,1.21744,space,1.153235,,,ms_small,0,124,124,124,1,0.812,0.2,False,None,T09,r1,2021-04-25_15h24.03.244,subsecond_timing_v2,2021.1.2,MacIntel,60.0024001
space,0.819025,space,1.16744,,,ms_small,0,125,125,125,1,0.988,0.2,False,None,T09,r1,2021-04-25_15h24.03.244,subsecond_timing_v2,2021.1.2,MacIntel,60.0024001
space,0.753145,space,0.999745,,,ms_small,0,126,126,126,1,0.741,0.3,False,None,T09,r1,2021-04-25_15h24.03.244,subsecond_timing_v2,2021.1.2,MacIntel,60.0024001
space,0.68431,space,1.06721,,,ms_small,0,127,127,127,1,0.67,0.1,False,None,T09,r1,2021-04-25_15h24.03.244,subsecond_timing_v2,2021.1.2,MacIntel,60.0024001
space,0.968045,space,1.03343,,,ms_small,0,128,128,128,1,0.776,0.3,False,None,T09,r1,2021-04-25_15h24.03.244,subsecond_timing_v2,2021.1.2,MacIntel,60.0024001
space,0.8506,space,1.13384,,,ms_small,0,129,129,129,1,0.847,0.1,False,None,T09,r1,2021-04-25_15h24.03.244,subsecond_timing_v2,2021.1.2,MacIntel,60.0024001
space,0.90106,space,0.967515,,,ms_small,0,130,130,130,1,0.812,0.1,False,None,T09,r1,2021-04-25_15h24.03.244,subsecond_timing_v2,2021.1.2,MacIntel,60.0024001
space,1.000485,space,1.15036,,,ms_small,0,131,131,131,1,0.882,0.1,False,None,T09,r1,2021-04-25_15h24.03.244,subsecond_timing_v2,2021.1.2,MacIntel,60.0024001
space,0.267735,space,1.15335,,,ms_small,0,132,132,132,1,1.024,0.2,False,None,T09,r1,2021-04-25_15h24.03.244,subsecond_timing_v2,2021.1.2,MacIntel,60.0024001
space,1.00463,space,1.23468,,,ms_small,0,133,133,133,1,0.953,0.3,False,None,T09,r1,2021-04-25_15h24.03.244,subsecond_timing_v2,2021.1.2,MacIntel,60.0024001
space,0.75013,space,1.15025,,,ms_small,0,134,134,134,1,0.988,0.2,False,None,T09,r1,2021-04-25_15h24.03.244,subsecond_timing_v2,2021.1.2,MacIntel,60.0024001
space,1.351125,space,1.00422,,,ms_small,0,135,135,135,1,0.706,0.1,False,None,T09,r1,2021-04-25_15h24.03.244,subsecond_timing_v2,2021.1.2,MacIntel,60.0024001
space,0.786585,space,1.4507,,,ms_small,0,136,136,136,1,0.918,0.1,False,None,T09,r1,2021-04-25_15h24.03.244,subsecond_timing_v2,2021.1.2,MacIntel,60.0024001
space,1.05099,space,1.283915,,,ms_small,0,137,137,137,1,0.741,0.1,False,None,T09,r1,2021-04-25_15h24.03.244,subsecond_timing_v2,2021.1.2,MacIntel,60.0024001
space,0.600325,space,1.018005,,,ms_small,0,138,138,138,1,0.741,0.3,False,None,T09,r1,2021-04-25_15h24.03.244,subsecond_timing_v2,2021.1.2,MacIntel,60.0024001
space,0.766805,space,0.985305,,,ms_small,0,139,139,139,1,0.988,0.2,False,None,T09,r1,2021-04-25_15h24.03.244,subsecond_timing_v2,2021.1.2,MacIntel,60.0024001
space,0.96712,space,1.06692,,,ms_small,0,140,140,140,1,0.812,0.3,False,None,T09,r1,2021-04-25_15h24.03.244,subsecond_timing_v2,2021.1.2,MacIntel,60.0024001
space,0.7848,space,1.17157,,,ms_small,0,141,141,141,1,0.918,0.2,False,None,T09,r1,2021-04-25_15h24.03.244,subsecond_timing_v2,2021.1.2,MacIntel,60.0024001
space,0.95192,space,1.18341,,,ms_small,0,142,142,142,1,0.847,0.2,False,None,T09,r1,2021-04-25_15h24.03.244,subsecond_timing_v2,2021.1.2,MacIntel,60.0024001
space,0.80127,space,1.1005,,,ms_small,0,143,143,143,1,0.953,0.1,False,None,T09,r1,2021-04-25_15h24.03.244,subsecond_timing_v2,2021.1.2,MacIntel,60.0024001
space,0.85106,space,1.2006,,,ms_small,0,144,144,144,1,0.776,0.3,False,None,T09,r1,2021-04-25_15h24.03.244,subsecond_timing_v2,2021.1.2,MacIntel,60.0024001
space,1.01725,space,1.07025,,,ms_small,0,145,145,145,1,0.706,0.3,False,None,T09,r1,2021-04-25_15h24.03.244,subsecond_timing_v2,2021.1.2,MacIntel,60.0024001
space,0.75073,space,1.149865,,,ms_small,0,146,146,146,1,1.024,0.1,False,None,T09,r1,2021-04-25_15h24.03.244,subsecond_timing_v2,2021.1.2,MacIntel,60.0024001
space,0.783735,space,1.250435,,,ms_small,0,147,147,147,1,0.882,0.2,False,None,T09,r1,2021-04-25_15h24.03.244,subsecond_timing_v2,2021.1.2,MacIntel,60.0024001
space,0.787005,space,1.284505,,,ms_small,0,148,148,148,1,0.67,0.3,False,None,T09,r1,2021-04-25_15h24.03.244,subsecond_timing_v2,2021.1.2,MacIntel,60.0024001
space,0.800895,space,1.283995,,,ms_small,0,149,149,149,1,0.67,0.3,False,None,T09,r1,2021-04-25_15h24.03.244,subsecond_timing_v2,2021.1.2,MacIntel,60.0024001
space,0.88686,space,1.20074,,,ms_small,0,150,150,150,1,0.741,0.3,False,None,T09,r1,2021-04-25_15h24.03.244,subsecond_timing_v2,2021.1.2,MacIntel,60.0024001
space,1.100845,space,0.96722,,,ms_small,0,151,151,151,1,0.918,0.1,False,None,T09,r1,2021-04-25_15h24.03.244,subsecond_timing_v2,2021.1.2,MacIntel,60.0024001
space,0.9028,space,1.10385,,,ms_small,0,152,152,152,1,0.706,0.3,False,None,T09,r1,2021-04-25_15h24.03.244,subsecond_timing_v2,2021.1.2,MacIntel,60.0024001
space,0.917295,space,1.067465,,,ms_small,0,153,153,153,1,0.988,0.2,False,None,T09,r1,2021-04-25_15h24.03.244,subsecond_timing_v2,2021.1.2,MacIntel,60.0024001
space,0.633625,space,0.86755,,,ms_small,0,154,154,154,1,0.847,0.2,False,None,T09,r1,2021-04-25_15h24.03.244,subsecond_timing_v2,2021.1.2,MacIntel,60.0024001
space,0.833745,space,1.001645,,,ms_small,0,155,155,155,1,0.776,0.3,False,None,T09,r1,2021-04-25_15h24.03.244,subsecond_timing_v2,2021.1.2,MacIntel,60.0024001
space,0.816815,space,1.183715,,,ms_small,0,156,156,156,1,0.882,0.2,False,None,T09,r1,2021-04-25_15h24.03.244,subsecond_timing_v2,2021.1.2,MacIntel,60.0024001
space,0.97,space,1.166895,,,ms_small,0,157,157,157,1,0.812,0.1,False,None,T09,r1,2021-04-25_15h24.03.244,subsecond_timing_v2,2021.1.2,MacIntel,60.0024001
space,0.78525,space,1.100175,,,ms_small,0,158,158,158,1,1.024,0.1,False,None,T09,r1,2021-04-25_15h24.03.244,subsecond_timing_v2,2021.1.2,MacIntel,60.0024001
space,0.86837,space,1.06728,,,ms_small,0,159,159,159,1,0.953,0.2,False,None,T09,r1,2021-04-25_15h24.03.244,subsecond_timing_v2,2021.1.2,MacIntel,60.0024001
space,0.86723,space,1.033855,,,ms_small,0,160,160,160,1,0.812,0.2,False,None,T09,r1,2021-04-25_15h24.03.244,subsecond_timing_v2,2021.1.2,MacIntel,60.0024001
space,1.035,space,0.884055,,,ms_small,0,161,161,161,1,0.67,0.1,False,None,T09,r1,2021-04-25_15h24.03.244,subsecond_timing_v2,2021.1.2,MacIntel,60.0024001
space,0.967005,space,1.01672,,,ms_small,0,162,162,162,1,0.953,0.1,False,None,T09,r1,2021-04-25_15h24.03.244,subsecond_timing_v2,2021.1.2,MacIntel,60.0024001
space,0.83429,space,1.002635,,,ms_small,0,163,163,163,1,0.882,0.3,False,None,T09,r1,2021-04-25_15h24.03.244,subsecond_timing_v2,2021.1.2,MacIntel,60.0024001
space,0.717445,space,1.200475,,,ms_small,0,164,164,164,1,0.988,0.1,False,None,T09,r1,2021-04-25_15h24.03.244,subsecond_timing_v2,2021.1.2,MacIntel,60.0024001
space,0.933695,space,1.032825,,,ms_small,0,165,165,165,1,0.706,0.1,False,None,T09,r1,2021-04-25_15h24.03.244,subsecond_timing_v2,2021.1.2,MacIntel,60.0024001
space,0.817015,space,0.951075,,,ms_small,0,166,166,166,1,1.024,0.3,False,None,T09,r1,2021-04-25_15h24.03.244,subsecond_timing_v2,2021.1.2,MacIntel,60.0024001
space,0.93728,space,1.08486,,,ms_small,0,167,167,167,1,0.847,0.3,False,None,T09,r1,2021-04-25_15h24.03.244,subsecond_timing_v2,2021.1.2,MacIntel,60.0024001
space,0.83437,space,1.00232,,,ms_small,0,168,168,168,1,0.741,0.3,False,None,T09,r1,2021-04-25_15h24.03.244,subsecond_timing_v2,2021.1.2,MacIntel,60.0024001
space,1.037155,space,1.0846,,,ms_small,0,169,169,169,1,0.918,0.2,False,None,T09,r1,2021-04-25_15h24.03.244,subsecond_timing_v2,2021.1.2,MacIntel,60.0024001
space,0.9172,space,1.18351,,,ms_small,0,170,170,170,1,0.776,0.1,False,None,T09,r1,2021-04-25_15h24.03.244,subsecond_timing_v2,2021.1.2,MacIntel,60.0024001
space,0.99976,space,1.350415,,,ms_small,0,171,171,171,1,0.882,0.3,False,None,T09,r1,2021-04-25_15h24.03.244,subsecond_timing_v2,2021.1.2,MacIntel,60.0024001
space,0.836545,space,1.33458,,,ms_small,0,172,172,172,1,0.741,0.1,False,None,T09,r1,2021-04-25_15h24.03.244,subsecond_timing_v2,2021.1.2,MacIntel,60.0024001
space,0.785935,space,1.236515,,,ms_small,0,173,173,173,1,0.988,0.1,False,None,T09,r1,2021-04-25_15h24.03.244,subsecond_timing_v2,2021.1.2,MacIntel,60.0024001
space,1.017315,space,1.09993,,,ms_small,0,174,174,174,1,0.706,0.2,False,None,T09,r1,2021-04-25_15h24.03.244,subsecond_timing_v2,2021.1.2,MacIntel,60.0024001
space,0.916625,space,1.450465,,,ms_small,0,175,175,175,1,0.918,0.2,False,None,T09,r1,2021-04-25_15h24.03.244,subsecond_timing_v2,2021.1.2,MacIntel,60.0024001
space,1.15088,space,1.18765,,,ms_small,0,176,176,176,1,0.953,0.2,False,None,T09,r1,2021-04-25_15h24.03.244,subsecond_timing_v2,2021.1.2,MacIntel,60.0024001
space,0.950365,space,1.183655,,,ms_small,0,177,177,177,1,0.67,0.2,False,None,T09,r1,2021-04-25_15h24.03.244,subsecond_timing_v2,2021.1.2,MacIntel,60.0024001
space,0.76818,space,1.284145,,,ms_small,0,178,178,178,1,0.847,0.3,False,None,T09,r1,2021-04-25_15h24.03.244,subsecond_timing_v2,2021.1.2,MacIntel,60.0024001
space,0.93418,space,1.15074,,,ms_small,0,179,179,179,1,0.776,0.1,False,None,T09,r1,2021-04-25_15h24.03.244,subsecond_timing_v2,2021.1.2,MacIntel,60.0024001
space,1.0345,space,1.10098,,,ms_small,0,180,180,180,1,0.812,0.1,False,None,T09,r1,2021-04-25_15h24.03.244,subsecond_timing_v2,2021.1.2,MacIntel,60.0024001
space,0.78428,space,1.2503,,,ms_small,0,181,181,181,1,1.024,0.2,False,None,T09,r1,2021-04-25_15h24.03.244,subsecond_timing_v2,2021.1.2,MacIntel,60.0024001
space,1.169355,space,1.25221,,,ms_small,0,182,182,182,1,0.706,0.3,False,None,T09,r1,2021-04-25_15h24.03.244,subsecond_timing_v2,2021.1.2,MacIntel,60.0024001
space,1.0033,space,1.11938,,,ms_small,0,183,183,183,1,0.988,0.1,False,None,T09,r1,2021-04-25_15h24.03.244,subsecond_timing_v2,2021.1.2,MacIntel,60.0024001
space,0.866945,space,1.06711,,,ms_small,0,184,184,184,1,1.024,0.3,False,None,T09,r1,2021-04-25_15h24.03.244,subsecond_timing_v2,2021.1.2,MacIntel,60.0024001
space,1.385075,space,1.101035,,,ms_small,0,185,185,185,1,0.847,0.1,False,None,T09,r1,2021-04-25_15h24.03.244,subsecond_timing_v2,2021.1.2,MacIntel,60.0024001
space,1.38597,space,1.050285,,,ms_small,0,186,186,186,1,0.741,0.1,False,None,T09,r1,2021-04-25_15h24.03.244,subsecond_timing_v2,2021.1.2,MacIntel,60.0024001
space,0.517055,space,1.336185,,,ms_small,0,187,187,187,1,0.776,0.3,False,None,T09,r1,2021-04-25_15h24.03.244,subsecond_timing_v2,2021.1.2,MacIntel,60.0024001
space,1.13378,space,1.350895,,,ms_small,0,188,188,188,1,0.812,0.3,False,None,T09,r1,2021-04-25_15h24.03.244,subsecond_timing_v2,2021.1.2,MacIntel,60.0024001
space,1.0341,space,0.98602,,,ms_small,0,189,189,189,1,0.918,0.3,False,None,T09,r1,2021-04-25_15h24.03.244,subsecond_timing_v2,2021.1.2,MacIntel,60.0024001
space,0.78431,space,1.018955,,,ms_small,0,190,190,190,1,0.67,0.1,False,None,T09,r1,2021-04-25_15h24.03.244,subsecond_timing_v2,2021.1.2,MacIntel,60.0024001
space,0.83312,space,1.20095,,,ms_small,0,191,191,191,1,0.882,0.2,False,None,T09,r1,2021-04-25_15h24.03.244,subsecond_timing_v2,2021.1.2,MacIntel,60.0024001
space,0.90011,space,1.08406,,,ms_small,0,192,192,192,1,0.953,0.1,False,None,T09,r1,2021-04-25_15h24.03.244,subsecond_timing_v2,2021.1.2,MacIntel,60.0024001
space,0.88588,space,1.034185,,,ms_small,0,193,193,193,1,0.776,0.1,False,None,T09,r1,2021-04-25_15h24.03.244,subsecond_timing_v2,2021.1.2,MacIntel,60.0024001
space,0.76706,space,1.16946,,,ms_small,0,194,194,194,1,0.988,0.3,False,None,T09,r1,2021-04-25_15h24.03.244,subsecond_timing_v2,2021.1.2,MacIntel,60.0024001
space,0.82031,space,1.26737,,,ms_small,0,195,195,195,1,0.953,0.1,False,None,T09,r1,2021-04-25_15h24.03.244,subsecond_timing_v2,2021.1.2,MacIntel,60.0024001
space,0.900495,space,1.135,,,ms_small,0,196,196,196,1,0.741,0.3,False,None,T09,r1,2021-04-25_15h24.03.244,subsecond_timing_v2,2021.1.2,MacIntel,60.0024001
space,0.851635,space,1.217515,,,ms_small,0,197,197,197,1,0.67,0.3,False,None,T09,r1,2021-04-25_15h24.03.244,subsecond_timing_v2,2021.1.2,MacIntel,60.0024001
space,0.91835,space,1.235725,,,ms_small,0,198,198,198,1,0.847,0.3,False,None,T09,r1,2021-04-25_15h24.03.244,subsecond_timing_v2,2021.1.2,MacIntel,60.0024001
space,0.63601,space,1.234565,,,ms_small,0,199,199,199,1,0.882,0.2,False,None,T09,r1,2021-04-25_15h24.03.244,subsecond_timing_v2,2021.1.2,MacIntel,60.0024001
space,0.96716,space,1.416795,,,ms_small,0,200,200,200,1,0.706,0.3,False,None,T09,r1,2021-04-25_15h24.03.244,subsecond_timing_v2,2021.1.2,MacIntel,60.0024001
space,0.952975,space,0.95044,,,ms_small,0,201,201,201,1,0.812,0.1,False,None,T09,r1,2021-04-25_15h24.03.244,subsecond_timing_v2,2021.1.2,MacIntel,60.0024001
space,0.83426,space,1.133425,,,ms_small,0,202,202,202,1,1.024,0.2,False,None,T09,r1,2021-04-25_15h24.03.244,subsecond_timing_v2,2021.1.2,MacIntel,60.0024001
space,1.16749,space,1.084035,,,ms_small,0,203,203,203,1,0.918,0.1,False,None,T09,r1,2021-04-25_15h24.03.244,subsecond_timing_v2,2021.1.2,MacIntel,60.0024001
space,1.067605,space,1.133895,,,ms_small,0,204,204,204,1,0.776,0.2,False,None,T09,r1,2021-04-25_15h24.03.244,subsecond_timing_v2,2021.1.2,MacIntel,60.0024001
space,0.783555,space,1.03331,,,ms_small,0,205,205,205,1,0.67,0.1,False,None,T09,r1,2021-04-25_15h24.03.244,subsecond_timing_v2,2021.1.2,MacIntel,60.0024001
space,0.952255,space,0.95043,,,ms_small,0,206,206,206,1,0.706,0.3,False,None,T09,r1,2021-04-25_15h24.03.244,subsecond_timing_v2,2021.1.2,MacIntel,60.0024001
space,0.803605,space,1.10135,,,ms_small,0,207,207,207,1,0.988,0.2,False,None,T09,r1,2021-04-25_15h24.03.244,subsecond_timing_v2,2021.1.2,MacIntel,60.0024001
space,0.90145,space,0.967145,,,ms_small,0,208,208,208,1,0.847,0.3,False,None,T09,r1,2021-04-25_15h24.03.244,subsecond_timing_v2,2021.1.2,MacIntel,60.0024001
space,0.851905,space,0.950615,,,ms_small,0,209,209,209,1,0.953,0.2,False,None,T09,r1,2021-04-25_15h24.03.244,subsecond_timing_v2,2021.1.2,MacIntel,60.0024001
space,0.784875,space,1.100095,,,ms_small,0,210,210,210,1,0.812,0.1,False,None,T09,r1,2021-04-25_15h24.03.244,subsecond_timing_v2,2021.1.2,MacIntel,60.0024001
space,0.88695,space,1.117495,,,ms_small,0,211,211,211,1,0.918,0.1,False,None,T09,r1,2021-04-25_15h24.03.244,subsecond_timing_v2,2021.1.2,MacIntel,60.0024001
space,0.653245,space,1.13384,,,ms_small,0,212,212,212,1,0.741,0.3,False,None,T09,r1,2021-04-25_15h24.03.244,subsecond_timing_v2,2021.1.2,MacIntel,60.0024001
space,0.568765,space,1.353355,,,ms_small,0,213,213,213,1,0.882,0.3,False,None,T09,r1,2021-04-25_15h24.03.244,subsecond_timing_v2,2021.1.2,MacIntel,60.0024001
space,0.800695,space,1.253685,,,ms_small,0,214,214,214,1,1.024,0.1,False,None,T09,r1,2021-04-25_15h24.03.244,subsecond_timing_v2,2021.1.2,MacIntel,60.0024001
space,0.816935,space,1.367795,,,ms_small,0,215,215,215,1,1.024,0.2,False,None,T09,r1,2021-04-25_15h24.03.244,subsecond_timing_v2,2021.1.2,MacIntel,60.0024001
space,0.90346,space,0.96779,,,ms_small,0,216,216,216,1,0.706,0.2,False,None,T09,r1,2021-04-25_15h24.03.244,subsecond_timing_v2,2021.1.2,MacIntel,60.0024001
space,1.267305,space,1.016735,,,ms_small,0,217,217,217,1,0.882,0.1,False,None,T09,r1,2021-04-25_15h24.03.244,subsecond_timing_v2,2021.1.2,MacIntel,60.0024001
space,1.004455,space,1.284545,,,ms_small,0,218,218,218,1,0.776,0.2,False,None,T09,r1,2021-04-25_15h24.03.244,subsecond_timing_v2,2021.1.2,MacIntel,60.0024001
space,0.98399,space,1.150045,,,ms_small,0,219,219,219,1,0.847,0.2,False,None,T09,r1,2021-04-25_15h24.03.244,subsecond_timing_v2,2021.1.2,MacIntel,60.0024001
space,0.934135,space,1.20329,,,ms_small,0,220,220,220,1,0.812,0.1,False,None,T09,r1,2021-04-25_15h24.03.244,subsecond_timing_v2,2021.1.2,MacIntel,60.0024001
space,0.950815,space,1.05122,,,ms_small,0,221,221,221,1,0.988,0.1,False,None,T09,r1,2021-04-25_15h24.03.244,subsecond_timing_v2,2021.1.2,MacIntel,60.0024001
space,1.167035,space,1.067155,,,ms_small,0,222,222,222,1,0.918,0.1,False,None,T09,r1,2021-04-25_15h24.03.244,subsecond_timing_v2,2021.1.2,MacIntel,60.0024001
space,0.966915,space,1.1339,,,ms_small,0,223,223,223,1,0.67,0.2,False,None,T09,r1,2021-04-25_15h24.03.244,subsecond_timing_v2,2021.1.2,MacIntel,60.0024001
space,0.93427,space,1.100435,,,ms_small,0,224,224,224,1,0.741,0.3,False,None,T09,r1,2021-04-25_15h24.03.244,subsecond_timing_v2,2021.1.2,MacIntel,60.0024001
space,0.816485,space,1.133975,,,ms_small,0,225,225,225,1,0.953,0.1,False,None,T09,r1,2021-04-25_15h24.03.244,subsecond_timing_v2,2021.1.2,MacIntel,60.0024001
