key_resp_start.keys,key_resp_start.rt,key_resp_stop.keys,key_resp_stop.rt,feedback_range,hit,stimulus_range,trials.thisRepN,trials.thisTrialN,trials.thisN,trials.thisIndex,trials.ran,stimulus_duration,onset,feedback,feedback_range_fromfile,participant,session,date,expName,psychopyVersion,OS,frameRate
space,1.387475,space,1.078435,0.3,TRUE,Training,0,0,0,0,1,1,0.3,True,0.3,T10,r1,2021-04-25_00h58.43.260,subsecond_timing_v2,2021.1.2,Win32,60.15399423
space,0.81685,space,0.893915,0.3,TRUE,Training,0,1,1,1,1,0.75,0.1,True,0.3,T10,r1,2021-04-25_00h58.43.260,subsecond_timing_v2,2021.1.2,Win32,60.15399423
space,0.777995,space,0.860185,0.3,FALSE,Training,0,2,2,2,1,0.5,0.1,True,0.3,T10,r1,2021-04-25_00h58.43.260,subsecond_timing_v2,2021.1.2,Win32,60.15399423
space,0.78363,space,0.724035,0.3,FALSE,Training,0,3,3,3,1,0.5,0.2,True,0.3,T10,r1,2021-04-25_00h58.43.260,subsecond_timing_v2,2021.1.2,Win32,60.15399423
space,0.601105,space,0.68289,0.3,TRUE,Training,0,4,4,4,1,0.75,0.2,True,0.3,T10,r1,2021-04-25_00h58.43.260,subsecond_timing_v2,2021.1.2,Win32,60.15399423
space,0.666375,space,1.0798,0.3,TRUE,Training,0,5,5,5,1,1,0.3,True,0.3,T10,r1,2021-04-25_00h58.43.260,subsecond_timing_v2,2021.1.2,Win32,60.15399423
space,0.72505,space,0.843005,,,ms_small,0,6,6,6,1,0.706,0.2,False,None,T10,r1,2021-04-25_00h58.43.260,subsecond_timing_v2,2021.1.2,Win32,60.15399423
space,0.666305,space,0.86677,,,ms_small,0,7,7,7,1,0.812,0.3,False,None,T10,r1,2021-04-25_00h58.43.260,subsecond_timing_v2,2021.1.2,Win32,60.15399423
space,0.703945,space,0.83445,,,ms_small,0,8,8,8,1,0.847,0.1,False,None,T10,r1,2021-04-25_00h58.43.260,subsecond_timing_v2,2021.1.2,Win32,60.15399423
space,0.67765,space,0.76679,,,ms_small,0,9,9,9,1,0.67,0.3,False,None,T10,r1,2021-04-25_00h58.43.260,subsecond_timing_v2,2021.1.2,Win32,60.15399423
space,0.561945,space,1.233265,,,ms_small,0,10,10,10,1,0.988,0.1,False,None,T10,r1,2021-04-25_00h58.43.260,subsecond_timing_v2,2021.1.2,Win32,60.15399423
space,0.68429,space,1.00008,,,ms_small,0,11,11,11,1,0.953,0.1,False,None,T10,r1,2021-04-25_00h58.43.260,subsecond_timing_v2,2021.1.2,Win32,60.15399423
space,0.80013,space,0.97258,,,ms_small,0,12,12,12,1,0.882,0.3,False,None,T10,r1,2021-04-25_00h58.43.260,subsecond_timing_v2,2021.1.2,Win32,60.15399423
space,0.70299,space,0.922715,,,ms_small,0,13,13,13,1,0.918,0.1,False,None,T10,r1,2021-04-25_00h58.43.260,subsecond_timing_v2,2021.1.2,Win32,60.15399423
space,0.87569,space,0.84829,,,ms_small,0,14,14,14,1,0.776,0.2,False,None,T10,r1,2021-04-25_00h58.43.260,subsecond_timing_v2,2021.1.2,Win32,60.15399423
space,1.104565,space,0.857215,,,ms_small,0,15,15,15,1,0.741,0.3,False,None,T10,r1,2021-04-25_00h58.43.260,subsecond_timing_v2,2021.1.2,Win32,60.15399423
space,0.883525,space,0.938965,,,ms_small,0,16,16,16,1,1.024,0.3,False,None,T10,r1,2021-04-25_00h58.43.260,subsecond_timing_v2,2021.1.2,Win32,60.15399423
space,0.989385,space,0.700445,,,ms_small,0,17,17,17,1,0.67,0.1,False,None,T10,r1,2021-04-25_00h58.43.260,subsecond_timing_v2,2021.1.2,Win32,60.15399423
space,0.90355,space,1.052855,,,ms_small,0,18,18,18,1,0.812,0.3,False,None,T10,r1,2021-04-25_00h58.43.260,subsecond_timing_v2,2021.1.2,Win32,60.15399423
space,0.842785,space,0.951215,,,ms_small,0,19,19,19,1,0.953,0.3,False,None,T10,r1,2021-04-25_00h58.43.260,subsecond_timing_v2,2021.1.2,Win32,60.15399423
space,1.068035,space,0.84997,,,ms_small,0,20,20,20,1,0.776,0.1,False,None,T10,r1,2021-04-25_00h58.43.260,subsecond_timing_v2,2021.1.2,Win32,60.15399423
space,1.19925,space,0.850315,,,ms_small,0,21,21,21,1,0.741,0.2,False,None,T10,r1,2021-04-25_00h58.43.260,subsecond_timing_v2,2021.1.2,Win32,60.15399423
space,1.060775,space,0.74075,,,ms_small,0,22,22,22,1,0.847,0.2,False,None,T10,r1,2021-04-25_00h58.43.260,subsecond_timing_v2,2021.1.2,Win32,60.15399423
space,0.88774,space,1.087765,,,ms_small,0,23,23,23,1,1.024,0.1,False,None,T10,r1,2021-04-25_00h58.43.260,subsecond_timing_v2,2021.1.2,Win32,60.15399423
space,0.94955,space,1.01602,,,ms_small,0,24,24,24,1,0.882,0.3,False,None,T10,r1,2021-04-25_00h58.43.260,subsecond_timing_v2,2021.1.2,Win32,60.15399423
space,0.937405,space,0.940735,,,ms_small,0,25,25,25,1,0.988,0.1,False,None,T10,r1,2021-04-25_00h58.43.260,subsecond_timing_v2,2021.1.2,Win32,60.15399423
space,1.02639,space,0.96265,,,ms_small,0,26,26,26,1,0.706,0.2,False,None,T10,r1,2021-04-25_00h58.43.260,subsecond_timing_v2,2021.1.2,Win32,60.15399423
space,0.852125,space,0.775955,,,ms_small,0,27,27,27,1,0.918,0.3,False,None,T10,r1,2021-04-25_00h58.43.260,subsecond_timing_v2,2021.1.2,Win32,60.15399423
space,1.133545,space,0.91217,,,ms_small,0,28,28,28,1,0.706,0.1,False,None,T10,r1,2021-04-25_00h58.43.260,subsecond_timing_v2,2021.1.2,Win32,60.15399423
space,1.008675,space,1.083215,,,ms_small,0,29,29,29,1,0.918,0.1,False,None,T10,r1,2021-04-25_00h58.43.260,subsecond_timing_v2,2021.1.2,Win32,60.15399423
space,0.84568,space,0.848585,,,ms_small,0,30,30,30,1,0.67,0.2,False,None,T10,r1,2021-04-25_00h58.43.260,subsecond_timing_v2,2021.1.2,Win32,60.15399423
space,0.91619,space,0.83824,,,ms_small,0,31,31,31,1,0.988,0.1,False,None,T10,r1,2021-04-25_00h58.43.260,subsecond_timing_v2,2021.1.2,Win32,60.15399423
space,0.858555,space,0.874355,,,ms_small,0,32,32,32,1,0.953,0.2,False,None,T10,r1,2021-04-25_00h58.43.260,subsecond_timing_v2,2021.1.2,Win32,60.15399423
space,1.05073,space,0.833925,,,ms_small,0,33,33,33,1,0.776,0.1,False,None,T10,r1,2021-04-25_00h58.43.260,subsecond_timing_v2,2021.1.2,Win32,60.15399423
space,0.999605,space,0.83454,,,ms_small,0,34,34,34,1,0.847,0.1,False,None,T10,r1,2021-04-25_00h58.43.260,subsecond_timing_v2,2021.1.2,Win32,60.15399423
space,1.05256,space,0.810255,,,ms_small,0,35,35,35,1,0.741,0.2,False,None,T10,r1,2021-04-25_00h58.43.260,subsecond_timing_v2,2021.1.2,Win32,60.15399423
space,1.003135,space,0.757075,,,ms_small,0,36,36,36,1,0.812,0.1,False,None,T10,r1,2021-04-25_00h58.43.260,subsecond_timing_v2,2021.1.2,Win32,60.15399423
space,0.98393,space,0.816245,,,ms_small,0,37,37,37,1,0.882,0.1,False,None,T10,r1,2021-04-25_00h58.43.260,subsecond_timing_v2,2021.1.2,Win32,60.15399423
space,0.828085,space,0.974785,,,ms_small,0,38,38,38,1,1.024,0.3,False,None,T10,r1,2021-04-25_00h58.43.260,subsecond_timing_v2,2021.1.2,Win32,60.15399423
space,0.98355,space,0.9169,,,ms_small,0,39,39,39,1,0.847,0.2,False,None,T10,r1,2021-04-25_00h58.43.260,subsecond_timing_v2,2021.1.2,Win32,60.15399423
space,0.94561,space,0.95023,,,ms_small,0,40,40,40,1,0.918,0.2,False,None,T10,r1,2021-04-25_00h58.43.260,subsecond_timing_v2,2021.1.2,Win32,60.15399423
space,0.98913,space,1.026295,,,ms_small,0,41,41,41,1,0.953,0.1,False,None,T10,r1,2021-04-25_00h58.43.260,subsecond_timing_v2,2021.1.2,Win32,60.15399423
space,0.95106,space,0.8667,,,ms_small,0,42,42,42,1,0.882,0.3,False,None,T10,r1,2021-04-25_00h58.43.260,subsecond_timing_v2,2021.1.2,Win32,60.15399423
space,1.14045,space,0.73009,,,ms_small,0,43,43,43,1,0.741,0.2,False,None,T10,r1,2021-04-25_00h58.43.260,subsecond_timing_v2,2021.1.2,Win32,60.15399423
space,1.028345,space,0.64654,,,ms_small,0,44,44,44,1,0.67,0.3,False,None,T10,r1,2021-04-25_00h58.43.260,subsecond_timing_v2,2021.1.2,Win32,60.15399423
space,0.844985,space,0.81915,,,ms_small,0,45,45,45,1,0.812,0.2,False,None,T10,r1,2021-04-25_00h58.43.260,subsecond_timing_v2,2021.1.2,Win32,60.15399423
space,0.88454,space,0.968465,,,ms_small,0,46,46,46,1,1.024,0.3,False,None,T10,r1,2021-04-25_00h58.43.260,subsecond_timing_v2,2021.1.2,Win32,60.15399423
space,1.08269,space,0.988765,,,ms_small,0,47,47,47,1,0.706,0.3,False,None,T10,r1,2021-04-25_00h58.43.260,subsecond_timing_v2,2021.1.2,Win32,60.15399423
space,0.856175,space,0.84387,,,ms_small,0,48,48,48,1,0.988,0.2,False,None,T10,r1,2021-04-25_00h58.43.260,subsecond_timing_v2,2021.1.2,Win32,60.15399423
space,1.00143,space,1.01033,,,ms_small,0,49,49,49,1,0.776,0.1,False,None,T10,r1,2021-04-25_00h58.43.260,subsecond_timing_v2,2021.1.2,Win32,60.15399423
space,0.81674,space,1.05434,,,ms_small,0,50,50,50,1,0.988,0.1,False,None,T10,r1,2021-04-25_00h58.43.260,subsecond_timing_v2,2021.1.2,Win32,60.15399423
space,0.95794,space,1.093075,,,ms_small,0,51,51,51,1,0.706,0.3,False,None,T10,r1,2021-04-25_00h58.43.260,subsecond_timing_v2,2021.1.2,Win32,60.15399423
space,0.816825,space,0.933525,,,ms_small,0,52,52,52,1,0.953,0.2,False,None,T10,r1,2021-04-25_00h58.43.260,subsecond_timing_v2,2021.1.2,Win32,60.15399423
space,0.87602,space,1.11071,,,ms_small,0,53,53,53,1,0.847,0.2,False,None,T10,r1,2021-04-25_00h58.43.260,subsecond_timing_v2,2021.1.2,Win32,60.15399423
space,0.939855,space,1.08233,,,ms_small,0,54,54,54,1,0.918,0.3,False,None,T10,r1,2021-04-25_00h58.43.260,subsecond_timing_v2,2021.1.2,Win32,60.15399423
space,1.00502,space,0.983105,,,ms_small,0,55,55,55,1,0.741,0.1,False,None,T10,r1,2021-04-25_00h58.43.260,subsecond_timing_v2,2021.1.2,Win32,60.15399423
space,1.05008,space,0.879685,,,ms_small,0,56,56,56,1,0.67,0.1,False,None,T10,r1,2021-04-25_00h58.43.260,subsecond_timing_v2,2021.1.2,Win32,60.15399423
space,0.767515,space,0.699915,,,ms_small,0,57,57,57,1,0.776,0.2,False,None,T10,r1,2021-04-25_00h58.43.260,subsecond_timing_v2,2021.1.2,Win32,60.15399423
space,0.81571,space,0.960465,,,ms_small,0,58,58,58,1,0.882,0.1,False,None,T10,r1,2021-04-25_00h58.43.260,subsecond_timing_v2,2021.1.2,Win32,60.15399423
space,0.88182,space,0.90271,,,ms_small,0,59,59,59,1,0.812,0.2,False,None,T10,r1,2021-04-25_00h58.43.260,subsecond_timing_v2,2021.1.2,Win32,60.15399423
space,0.91565,space,0.963125,,,ms_small,0,60,60,60,1,1.024,0.2,False,None,T10,r1,2021-04-25_00h58.43.260,subsecond_timing_v2,2021.1.2,Win32,60.15399423
space,0.946405,space,0.916185,,,ms_small,0,61,61,61,1,0.847,0.3,False,None,T10,r1,2021-04-25_00h58.43.260,subsecond_timing_v2,2021.1.2,Win32,60.15399423
space,0.84469,space,0.617565,,,ms_small,0,62,62,62,1,0.67,0.1,False,None,T10,r1,2021-04-25_00h58.43.260,subsecond_timing_v2,2021.1.2,Win32,60.15399423
space,0.613355,space,0.98329,,,ms_small,0,63,63,63,1,0.988,0.3,False,None,T10,r1,2021-04-25_00h58.43.260,subsecond_timing_v2,2021.1.2,Win32,60.15399423
space,0.91826,space,0.83585,,,ms_small,0,64,64,64,1,0.812,0.1,False,None,T10,r1,2021-04-25_00h58.43.260,subsecond_timing_v2,2021.1.2,Win32,60.15399423
space,0.85397,space,0.96918,,,ms_small,0,65,65,65,1,0.882,0.3,False,None,T10,r1,2021-04-25_00h58.43.260,subsecond_timing_v2,2021.1.2,Win32,60.15399423
space,0.90886,space,0.921985,,,ms_small,0,66,66,66,1,0.918,0.1,False,None,T10,r1,2021-04-25_00h58.43.260,subsecond_timing_v2,2021.1.2,Win32,60.15399423
space,0.853225,space,1.21609,,,ms_small,0,67,67,67,1,1.024,0.1,False,None,T10,r1,2021-04-25_00h58.43.260,subsecond_timing_v2,2021.1.2,Win32,60.15399423
space,0.83989,space,0.83346,,,ms_small,0,68,68,68,1,0.776,0.2,False,None,T10,r1,2021-04-25_00h58.43.260,subsecond_timing_v2,2021.1.2,Win32,60.15399423
space,0.589675,space,1.38491,,,ms_small,0,69,69,69,1,0.953,0.1,False,None,T10,r1,2021-04-25_00h58.43.260,subsecond_timing_v2,2021.1.2,Win32,60.15399423
space,0.81623,space,0.723605,,,ms_small,0,70,70,70,1,0.706,0.1,False,None,T10,r1,2021-04-25_00h58.43.260,subsecond_timing_v2,2021.1.2,Win32,60.15399423
space,0.889855,space,0.886985,,,ms_small,0,71,71,71,1,0.741,0.3,False,None,T10,r1,2021-04-25_00h58.43.260,subsecond_timing_v2,2021.1.2,Win32,60.15399423
space,0.8716,space,0.866875,,,ms_small,0,72,72,72,1,0.882,0.2,False,None,T10,r1,2021-04-25_00h58.43.260,subsecond_timing_v2,2021.1.2,Win32,60.15399423
space,0.94989,space,0.957,,,ms_small,0,73,73,73,1,0.918,0.3,False,None,T10,r1,2021-04-25_00h58.43.260,subsecond_timing_v2,2021.1.2,Win32,60.15399423
space,1.03335,space,0.91673,,,ms_small,0,74,74,74,1,0.988,0.2,False,None,T10,r1,2021-04-25_00h58.43.260,subsecond_timing_v2,2021.1.2,Win32,60.15399423
space,0.76091,space,0.73371,,,ms_small,0,75,75,75,1,0.67,0.1,False,None,T10,r1,2021-04-25_00h58.43.260,subsecond_timing_v2,2021.1.2,Win32,60.15399423
space,0.696505,space,0.954065,,,ms_small,0,76,76,76,1,0.776,0.3,False,None,T10,r1,2021-04-25_00h58.43.260,subsecond_timing_v2,2021.1.2,Win32,60.15399423
space,0.80655,space,0.85009,,,ms_small,0,77,77,77,1,0.847,0.2,False,None,T10,r1,2021-04-25_00h58.43.260,subsecond_timing_v2,2021.1.2,Win32,60.15399423
space,0.915565,space,0.949375,,,ms_small,0,78,78,78,1,1.024,0.2,False,None,T10,r1,2021-04-25_00h58.43.260,subsecond_timing_v2,2021.1.2,Win32,60.15399423
space,0.98787,space,0.93338,,,ms_small,0,79,79,79,1,0.812,0.3,False,None,T10,r1,2021-04-25_00h58.43.260,subsecond_timing_v2,2021.1.2,Win32,60.15399423
space,0.871055,space,0.962155,,,ms_small,0,80,80,80,1,0.953,0.1,False,None,T10,r1,2021-04-25_00h58.43.260,subsecond_timing_v2,2021.1.2,Win32,60.15399423
space,0.9783,space,0.9715,,,ms_small,0,81,81,81,1,0.706,0.2,False,None,T10,r1,2021-04-25_00h58.43.260,subsecond_timing_v2,2021.1.2,Win32,60.15399423
space,2.5996,space,1.085635,,,ms_small,0,82,82,82,1,0.741,0.3,False,None,T10,r1,2021-04-25_00h58.43.260,subsecond_timing_v2,2021.1.2,Win32,60.15399423
space,0.88354,space,0.720005,,,ms_small,0,83,83,83,1,0.706,0.1,False,None,T10,r1,2021-04-25_00h58.43.260,subsecond_timing_v2,2021.1.2,Win32,60.15399423
space,0.849435,space,0.92626,,,ms_small,0,84,84,84,1,0.812,0.2,False,None,T10,r1,2021-04-25_00h58.43.260,subsecond_timing_v2,2021.1.2,Win32,60.15399423
space,0.844065,space,0.883705,,,ms_small,0,85,85,85,1,0.882,0.2,False,None,T10,r1,2021-04-25_00h58.43.260,subsecond_timing_v2,2021.1.2,Win32,60.15399423
space,1.06813,space,1.04167,,,ms_small,0,86,86,86,1,0.776,0.1,False,None,T10,r1,2021-04-25_00h58.43.260,subsecond_timing_v2,2021.1.2,Win32,60.15399423
space,0.83746,space,1.086785,,,ms_small,0,87,87,87,1,0.988,0.3,False,None,T10,r1,2021-04-25_00h58.43.260,subsecond_timing_v2,2021.1.2,Win32,60.15399423
space,0.856495,space,0.74564,,,ms_small,0,88,88,88,1,0.67,0.2,False,None,T10,r1,2021-04-25_00h58.43.260,subsecond_timing_v2,2021.1.2,Win32,60.15399423
space,0.85232,space,1.000155,,,ms_small,0,89,89,89,1,0.741,0.3,False,None,T10,r1,2021-04-25_00h58.43.260,subsecond_timing_v2,2021.1.2,Win32,60.15399423
space,0.828305,space,1.0346,,,ms_small,0,90,90,90,1,0.918,0.1,False,None,T10,r1,2021-04-25_00h58.43.260,subsecond_timing_v2,2021.1.2,Win32,60.15399423
space,0.81984,space,0.84964,,,ms_small,0,91,91,91,1,0.847,0.3,False,None,T10,r1,2021-04-25_00h58.43.260,subsecond_timing_v2,2021.1.2,Win32,60.15399423
space,0.750545,space,0.925195,,,ms_small,0,92,92,92,1,0.953,0.2,False,None,T10,r1,2021-04-25_00h58.43.260,subsecond_timing_v2,2021.1.2,Win32,60.15399423
space,0.732575,space,0.8908,,,ms_small,0,93,93,93,1,1.024,0.2,False,None,T10,r1,2021-04-25_00h58.43.260,subsecond_timing_v2,2021.1.2,Win32,60.15399423
space,0.92362,space,0.782965,,,ms_small,0,95,95,95,1,0.67,0.2,False,None,T10,r1,2021-04-25_00h58.43.260,subsecond_timing_v2,2021.1.2,Win32,60.15399423
space,1.11691,space,1.06274,,,ms_small,0,96,96,96,1,0.918,0.3,False,None,T10,r1,2021-04-25_00h58.43.260,subsecond_timing_v2,2021.1.2,Win32,60.15399423
space,1.044675,space,1.033295,,,ms_small,0,97,97,97,1,0.706,0.2,False,None,T10,r1,2021-04-25_00h58.43.260,subsecond_timing_v2,2021.1.2,Win32,60.15399423
space,0.800155,space,1.020665,,,ms_small,0,98,98,98,1,0.988,0.1,False,None,T10,r1,2021-04-25_00h58.43.260,subsecond_timing_v2,2021.1.2,Win32,60.15399423
space,0.883665,space,0.86771,,,ms_small,0,99,99,99,1,0.741,0.3,False,None,T10,r1,2021-04-25_00h58.43.260,subsecond_timing_v2,2021.1.2,Win32,60.15399423
space,0.849685,space,0.95854,,,ms_small,0,100,100,100,1,1.024,0.2,False,None,T10,r1,2021-04-25_00h58.43.260,subsecond_timing_v2,2021.1.2,Win32,60.15399423
space,0.99473,space,0.833555,,,ms_small,0,101,101,101,1,0.776,0.2,False,None,T10,r1,2021-04-25_00h58.43.260,subsecond_timing_v2,2021.1.2,Win32,60.15399423
space,0.87242,space,1.017465,,,ms_small,0,102,102,102,1,0.812,0.2,False,None,T10,r1,2021-04-25_00h58.43.260,subsecond_timing_v2,2021.1.2,Win32,60.15399423
space,0.782495,space,1.152905,,,ms_small,0,103,103,103,1,0.953,0.2,False,None,T10,r1,2021-04-25_00h58.43.260,subsecond_timing_v2,2021.1.2,Win32,60.15399423
space,0.77742,space,1.63261,,,ms_small,0,104,104,104,1,0.847,0.1,False,None,T10,r1,2021-04-25_00h58.43.260,subsecond_timing_v2,2021.1.2,Win32,60.15399423
space,0.63973,space,1.021725,,,ms_small,0,105,105,105,1,0.706,0.2,False,None,T10,r1,2021-04-25_00h58.43.260,subsecond_timing_v2,2021.1.2,Win32,60.15399423
space,0.576935,space,1.24595,,,ms_small,0,106,106,106,1,0.741,0.1,False,None,T10,r1,2021-04-25_00h58.43.260,subsecond_timing_v2,2021.1.2,Win32,60.15399423
space,0.82032,space,1.166755,,,ms_small,0,107,107,107,1,0.67,0.1,False,None,T10,r1,2021-04-25_00h58.43.260,subsecond_timing_v2,2021.1.2,Win32,60.15399423
space,0.87229,space,1.149235,,,ms_small,0,108,108,108,1,0.847,0.1,False,None,T10,r1,2021-04-25_00h58.43.260,subsecond_timing_v2,2021.1.2,Win32,60.15399423
space,1.32521,space,1.231275,,,ms_small,0,109,109,109,1,0.812,0.2,False,None,T10,r1,2021-04-25_00h58.43.260,subsecond_timing_v2,2021.1.2,Win32,60.15399423
space,0.88862,space,1.04999,,,ms_small,0,110,110,110,1,0.776,0.3,False,None,T10,r1,2021-04-25_00h58.43.260,subsecond_timing_v2,2021.1.2,Win32,60.15399423
space,1.41688,space,1.122825,,,ms_small,0,111,111,111,1,0.988,0.3,False,None,T10,r1,2021-04-25_00h58.43.260,subsecond_timing_v2,2021.1.2,Win32,60.15399423
space,0.73384,space,1.001065,,,ms_small,0,112,112,112,1,0.918,0.1,False,None,T10,r1,2021-04-25_00h58.43.260,subsecond_timing_v2,2021.1.2,Win32,60.15399423
space,1.39935,space,1.38301,,,ms_small,0,113,113,113,1,0.882,0.1,False,None,T10,r1,2021-04-25_00h58.43.260,subsecond_timing_v2,2021.1.2,Win32,60.15399423
space,1.859295,space,1.30211,,,ms_small,0,114,114,114,1,1.024,0.2,False,None,T10,r1,2021-04-25_00h58.43.260,subsecond_timing_v2,2021.1.2,Win32,60.15399423
space,0.883,space,1.099175,,,ms_small,0,115,115,115,1,0.953,0.2,False,None,T10,r1,2021-04-25_00h58.43.260,subsecond_timing_v2,2021.1.2,Win32,60.15399423
space,0.96549,space,1.003615,,,ms_small,0,116,116,116,1,0.847,0.3,False,None,T10,r1,2021-04-25_00h58.43.260,subsecond_timing_v2,2021.1.2,Win32,60.15399423
space,0.97389,space,1.037445,,,ms_small,0,117,117,117,1,0.882,0.2,False,None,T10,r1,2021-04-25_00h58.43.260,subsecond_timing_v2,2021.1.2,Win32,60.15399423
space,0.962095,space,1.08819,,,ms_small,0,118,118,118,1,1.024,0.1,False,None,T10,r1,2021-04-25_00h58.43.260,subsecond_timing_v2,2021.1.2,Win32,60.15399423
space,0.933445,space,0.820775,,,ms_small,0,119,119,119,1,0.706,0.2,False,None,T10,r1,2021-04-25_00h58.43.260,subsecond_timing_v2,2021.1.2,Win32,60.15399423
space,0.7533,space,1.00005,,,ms_small,0,120,120,120,1,0.918,0.1,False,None,T10,r1,2021-04-25_00h58.43.260,subsecond_timing_v2,2021.1.2,Win32,60.15399423
space,0.958415,space,0.872415,,,ms_small,0,121,121,121,1,0.776,0.1,False,None,T10,r1,2021-04-25_00h58.43.260,subsecond_timing_v2,2021.1.2,Win32,60.15399423
space,0.859175,space,1.201075,,,ms_small,0,122,122,122,1,0.953,0.3,False,None,T10,r1,2021-04-25_00h58.43.260,subsecond_timing_v2,2021.1.2,Win32,60.15399423
space,1.07115,space,0.870535,,,ms_small,0,123,123,123,1,0.67,0.1,False,None,T10,r1,2021-04-25_00h58.43.260,subsecond_timing_v2,2021.1.2,Win32,60.15399423
space,1.04469,space,0.829895,,,ms_small,0,124,124,124,1,0.812,0.2,False,None,T10,r1,2021-04-25_00h58.43.260,subsecond_timing_v2,2021.1.2,Win32,60.15399423
space,0.834565,space,0.96909,,,ms_small,0,125,125,125,1,0.988,0.2,False,None,T10,r1,2021-04-25_00h58.43.260,subsecond_timing_v2,2021.1.2,Win32,60.15399423
space,0.819305,space,0.948655,,,ms_small,0,126,126,126,1,0.741,0.3,False,None,T10,r1,2021-04-25_00h58.43.260,subsecond_timing_v2,2021.1.2,Win32,60.15399423
space,0.74533,space,0.633475,,,ms_small,0,127,127,127,1,0.67,0.1,False,None,T10,r1,2021-04-25_00h58.43.260,subsecond_timing_v2,2021.1.2,Win32,60.15399423
space,0.565895,space,0.92837,,,ms_small,0,128,128,128,1,0.776,0.3,False,None,T10,r1,2021-04-25_00h58.43.260,subsecond_timing_v2,2021.1.2,Win32,60.15399423
space,0.667335,space,0.692595,,,ms_small,0,129,129,129,1,0.847,0.1,False,None,T10,r1,2021-04-25_00h58.43.260,subsecond_timing_v2,2021.1.2,Win32,60.15399423
space,0.58509,space,0.71811,,,ms_small,0,130,130,130,1,0.812,0.1,False,None,T10,r1,2021-04-25_00h58.43.260,subsecond_timing_v2,2021.1.2,Win32,60.15399423
space,0.68373,space,0.75016,,,ms_small,0,131,131,131,1,0.882,0.1,False,None,T10,r1,2021-04-25_00h58.43.260,subsecond_timing_v2,2021.1.2,Win32,60.15399423
space,0.68207,space,1.103065,,,ms_small,0,132,132,132,1,1.024,0.2,False,None,T10,r1,2021-04-25_00h58.43.260,subsecond_timing_v2,2021.1.2,Win32,60.15399423
space,0.671795,space,1.028105,,,ms_small,0,133,133,133,1,0.953,0.3,False,None,T10,r1,2021-04-25_00h58.43.260,subsecond_timing_v2,2021.1.2,Win32,60.15399423
space,0.65143,space,0.967225,,,ms_small,0,134,134,134,1,0.988,0.2,False,None,T10,r1,2021-04-25_00h58.43.260,subsecond_timing_v2,2021.1.2,Win32,60.15399423
space,0.67885,space,0.78346,,,ms_small,0,135,135,135,1,0.706,0.1,False,None,T10,r1,2021-04-25_00h58.43.260,subsecond_timing_v2,2021.1.2,Win32,60.15399423
space,0.69644,space,0.82745,,,ms_small,0,136,136,136,1,0.918,0.1,False,None,T10,r1,2021-04-25_00h58.43.260,subsecond_timing_v2,2021.1.2,Win32,60.15399423
space,0.811415,space,0.62575,,,ms_small,0,137,137,137,1,0.741,0.1,False,None,T10,r1,2021-04-25_00h58.43.260,subsecond_timing_v2,2021.1.2,Win32,60.15399423
space,0.75024,space,0.773535,,,ms_small,0,138,138,138,1,0.741,0.3,False,None,T10,r1,2021-04-25_00h58.43.260,subsecond_timing_v2,2021.1.2,Win32,60.15399423
space,0.58433,space,1.349765,,,ms_small,0,139,139,139,1,0.988,0.2,False,None,T10,r1,2021-04-25_00h58.43.260,subsecond_timing_v2,2021.1.2,Win32,60.15399423
space,0.652715,space,0.850175,,,ms_small,0,140,140,140,1,0.812,0.3,False,None,T10,r1,2021-04-25_00h58.43.260,subsecond_timing_v2,2021.1.2,Win32,60.15399423
space,0.57544,space,1.13266,,,ms_small,0,141,141,141,1,0.918,0.2,False,None,T10,r1,2021-04-25_00h58.43.260,subsecond_timing_v2,2021.1.2,Win32,60.15399423
space,0.611505,space,0.707145,,,ms_small,0,142,142,142,1,0.847,0.2,False,None,T10,r1,2021-04-25_00h58.43.260,subsecond_timing_v2,2021.1.2,Win32,60.15399423
space,0.553015,space,1.103355,,,ms_small,0,143,143,143,1,0.953,0.1,False,None,T10,r1,2021-04-25_00h58.43.260,subsecond_timing_v2,2021.1.2,Win32,60.15399423
space,0.64925,space,0.77927,,,ms_small,0,144,144,144,1,0.776,0.3,False,None,T10,r1,2021-04-25_00h58.43.260,subsecond_timing_v2,2021.1.2,Win32,60.15399423
space,0.70406,space,0.58733,,,ms_small,0,145,145,145,1,0.706,0.3,False,None,T10,r1,2021-04-25_00h58.43.260,subsecond_timing_v2,2021.1.2,Win32,60.15399423
space,0.546915,space,1.3449,,,ms_small,0,146,146,146,1,1.024,0.1,False,None,T10,r1,2021-04-25_00h58.43.260,subsecond_timing_v2,2021.1.2,Win32,60.15399423
space,0.68299,space,1.05875,,,ms_small,0,147,147,147,1,0.882,0.2,False,None,T10,r1,2021-04-25_00h58.43.260,subsecond_timing_v2,2021.1.2,Win32,60.15399423
space,0.732505,space,0.783965,,,ms_small,0,148,148,148,1,0.67,0.3,False,None,T10,r1,2021-04-25_00h58.43.260,subsecond_timing_v2,2021.1.2,Win32,60.15399423
space,0.606905,space,0.753965,,,ms_small,0,149,149,149,1,0.67,0.3,False,None,T10,r1,2021-04-25_00h58.43.260,subsecond_timing_v2,2021.1.2,Win32,60.15399423
space,0.68898,space,0.812305,,,ms_small,0,150,150,150,1,0.741,0.3,False,None,T10,r1,2021-04-25_00h58.43.260,subsecond_timing_v2,2021.1.2,Win32,60.15399423
space,0.6191,space,0.89012,,,ms_small,0,151,151,151,1,0.918,0.1,False,None,T10,r1,2021-04-25_00h58.43.260,subsecond_timing_v2,2021.1.2,Win32,60.15399423
space,0.54278,space,0.78827,,,ms_small,0,152,152,152,1,0.706,0.3,False,None,T10,r1,2021-04-25_00h58.43.260,subsecond_timing_v2,2021.1.2,Win32,60.15399423
space,0.383265,space,0.89999,,,ms_small,0,153,153,153,1,0.988,0.2,False,None,T10,r1,2021-04-25_00h58.43.260,subsecond_timing_v2,2021.1.2,Win32,60.15399423
space,0.43725,space,1.329955,,,ms_small,0,154,154,154,1,0.847,0.2,False,None,T10,r1,2021-04-25_00h58.43.260,subsecond_timing_v2,2021.1.2,Win32,60.15399423
space,0.59265,space,0.783135,,,ms_small,0,155,155,155,1,0.776,0.3,False,None,T10,r1,2021-04-25_00h58.43.260,subsecond_timing_v2,2021.1.2,Win32,60.15399423
space,0.628955,space,0.776175,,,ms_small,0,156,156,156,1,0.882,0.2,False,None,T10,r1,2021-04-25_00h58.43.260,subsecond_timing_v2,2021.1.2,Win32,60.15399423
space,0.597955,space,0.862625,,,ms_small,0,157,157,157,1,0.812,0.1,False,None,T10,r1,2021-04-25_00h58.43.260,subsecond_timing_v2,2021.1.2,Win32,60.15399423
space,0.75848,space,0.93754,,,ms_small,0,158,158,158,1,1.024,0.1,False,None,T10,r1,2021-04-25_00h58.43.260,subsecond_timing_v2,2021.1.2,Win32,60.15399423
space,0.458305,space,0.880295,,,ms_small,0,159,159,159,1,0.953,0.2,False,None,T10,r1,2021-04-25_00h58.43.260,subsecond_timing_v2,2021.1.2,Win32,60.15399423
space,0.461765,space,1.04941,,,ms_small,0,160,160,160,1,0.812,0.2,False,None,T10,r1,2021-04-25_00h58.43.260,subsecond_timing_v2,2021.1.2,Win32,60.15399423
space,0.66823,space,0.75252,,,ms_small,0,161,161,161,1,0.67,0.1,False,None,T10,r1,2021-04-25_00h58.43.260,subsecond_timing_v2,2021.1.2,Win32,60.15399423
space,0.5401,space,0.974735,,,ms_small,0,162,162,162,1,0.953,0.1,False,None,T10,r1,2021-04-25_00h58.43.260,subsecond_timing_v2,2021.1.2,Win32,60.15399423
space,0.61663,space,1.01609,,,ms_small,0,163,163,163,1,0.882,0.3,False,None,T10,r1,2021-04-25_00h58.43.260,subsecond_timing_v2,2021.1.2,Win32,60.15399423
space,0.377565,space,1.08751,,,ms_small,0,164,164,164,1,0.988,0.1,False,None,T10,r1,2021-04-25_00h58.43.260,subsecond_timing_v2,2021.1.2,Win32,60.15399423
space,0.42465,space,0.934005,,,ms_small,0,165,165,165,1,0.706,0.1,False,None,T10,r1,2021-04-25_00h58.43.260,subsecond_timing_v2,2021.1.2,Win32,60.15399423
space,0.565755,space,1.13549,,,ms_small,0,166,166,166,1,1.024,0.3,False,None,T10,r1,2021-04-25_00h58.43.260,subsecond_timing_v2,2021.1.2,Win32,60.15399423
space,0.68308,space,0.78992,,,ms_small,0,167,167,167,1,0.847,0.3,False,None,T10,r1,2021-04-25_00h58.43.260,subsecond_timing_v2,2021.1.2,Win32,60.15399423
space,0.66028,space,0.83223,,,ms_small,0,168,168,168,1,0.741,0.3,False,None,T10,r1,2021-04-25_00h58.43.260,subsecond_timing_v2,2021.1.2,Win32,60.15399423
space,0.60616,space,0.785755,,,ms_small,0,169,169,169,1,0.918,0.2,False,None,T10,r1,2021-04-25_00h58.43.260,subsecond_timing_v2,2021.1.2,Win32,60.15399423
space,0.659465,space,0.951115,,,ms_small,0,170,170,170,1,0.776,0.1,False,None,T10,r1,2021-04-25_00h58.43.260,subsecond_timing_v2,2021.1.2,Win32,60.15399423
space,0.671935,space,0.61121,,,ms_small,0,171,171,171,1,0.882,0.3,False,None,T10,r1,2021-04-25_00h58.43.260,subsecond_timing_v2,2021.1.2,Win32,60.15399423
space,0.674565,space,0.833865,,,ms_small,0,172,172,172,1,0.741,0.1,False,None,T10,r1,2021-04-25_00h58.43.260,subsecond_timing_v2,2021.1.2,Win32,60.15399423
space,0.582195,space,0.96131,,,ms_small,0,173,173,173,1,0.988,0.1,False,None,T10,r1,2021-04-25_00h58.43.260,subsecond_timing_v2,2021.1.2,Win32,60.15399423
space,0.619955,space,1.11283,,,ms_small,0,174,174,174,1,0.706,0.2,False,None,T10,r1,2021-04-25_00h58.43.260,subsecond_timing_v2,2021.1.2,Win32,60.15399423
space,0.53451,space,0.99219,,,ms_small,0,175,175,175,1,0.918,0.2,False,None,T10,r1,2021-04-25_00h58.43.260,subsecond_timing_v2,2021.1.2,Win32,60.15399423
space,0.45984,space,1.232765,,,ms_small,0,176,176,176,1,0.953,0.2,False,None,T10,r1,2021-04-25_00h58.43.260,subsecond_timing_v2,2021.1.2,Win32,60.15399423
space,0.63552,space,0.701565,,,ms_small,0,177,177,177,1,0.67,0.2,False,None,T10,r1,2021-04-25_00h58.43.260,subsecond_timing_v2,2021.1.2,Win32,60.15399423
space,0.48882,space,0.808825,,,ms_small,0,178,178,178,1,0.847,0.3,False,None,T10,r1,2021-04-25_00h58.43.260,subsecond_timing_v2,2021.1.2,Win32,60.15399423
space,0.48559,space,0.802215,,,ms_small,0,179,179,179,1,0.776,0.1,False,None,T10,r1,2021-04-25_00h58.43.260,subsecond_timing_v2,2021.1.2,Win32,60.15399423
space,0.48639,space,0.850195,,,ms_small,0,180,180,180,1,0.812,0.1,False,None,T10,r1,2021-04-25_00h58.43.260,subsecond_timing_v2,2021.1.2,Win32,60.15399423
space,0.45673,space,1.199865,,,ms_small,0,181,181,181,1,1.024,0.2,False,None,T10,r1,2021-04-25_00h58.43.260,subsecond_timing_v2,2021.1.2,Win32,60.15399423
space,0.61758,space,0.79961,,,ms_small,0,182,182,182,1,0.706,0.3,False,None,T10,r1,2021-04-25_00h58.43.260,subsecond_timing_v2,2021.1.2,Win32,60.15399423
space,0.5943,space,1.16268,,,ms_small,0,183,183,183,1,0.988,0.1,False,None,T10,r1,2021-04-25_00h58.43.260,subsecond_timing_v2,2021.1.2,Win32,60.15399423
space,0.65237,space,0.98449,,,ms_small,0,184,184,184,1,1.024,0.3,False,None,T10,r1,2021-04-25_00h58.43.260,subsecond_timing_v2,2021.1.2,Win32,60.15399423
space,0.538015,space,1.05457,,,ms_small,0,185,185,185,1,0.847,0.1,False,None,T10,r1,2021-04-25_00h58.43.260,subsecond_timing_v2,2021.1.2,Win32,60.15399423
space,0.553585,space,1.035825,,,ms_small,0,186,186,186,1,0.741,0.1,False,None,T10,r1,2021-04-25_00h58.43.260,subsecond_timing_v2,2021.1.2,Win32,60.15399423
space,0.67887,space,0.922995,,,ms_small,0,187,187,187,1,0.776,0.3,False,None,T10,r1,2021-04-25_00h58.43.260,subsecond_timing_v2,2021.1.2,Win32,60.15399423
space,0.79912,space,0.88392,,,ms_small,0,188,188,188,1,0.812,0.3,False,None,T10,r1,2021-04-25_00h58.43.260,subsecond_timing_v2,2021.1.2,Win32,60.15399423
space,0.68316,space,0.984755,,,ms_small,0,189,189,189,1,0.918,0.3,False,None,T10,r1,2021-04-25_00h58.43.260,subsecond_timing_v2,2021.1.2,Win32,60.15399423
space,0.642825,space,0.71752,,,ms_small,0,190,190,190,1,0.67,0.1,False,None,T10,r1,2021-04-25_00h58.43.260,subsecond_timing_v2,2021.1.2,Win32,60.15399423
space,0.51091,space,0.902375,,,ms_small,0,191,191,191,1,0.882,0.2,False,None,T10,r1,2021-04-25_00h58.43.260,subsecond_timing_v2,2021.1.2,Win32,60.15399423
space,0.65054,space,1.16665,,,ms_small,0,192,192,192,1,0.953,0.1,False,None,T10,r1,2021-04-25_00h58.43.260,subsecond_timing_v2,2021.1.2,Win32,60.15399423
space,1.376035,space,1,,,ms_small,0,193,193,193,1,0.776,0.1,False,None,T10,r1,2021-04-25_00h58.43.260,subsecond_timing_v2,2021.1.2,Win32,60.15399423
space,0.939135,space,1.11668,,,ms_small,0,194,194,194,1,0.988,0.3,False,None,T10,r1,2021-04-25_00h58.43.260,subsecond_timing_v2,2021.1.2,Win32,60.15399423
space,0.715135,space,1.119015,,,ms_small,0,195,195,195,1,0.953,0.1,False,None,T10,r1,2021-04-25_00h58.43.260,subsecond_timing_v2,2021.1.2,Win32,60.15399423
space,0.70062,space,1.366045,,,ms_small,0,196,196,196,1,0.741,0.3,False,None,T10,r1,2021-04-25_00h58.43.260,subsecond_timing_v2,2021.1.2,Win32,60.15399423
space,0.686355,space,0.713525,,,ms_small,0,197,197,197,1,0.67,0.3,False,None,T10,r1,2021-04-25_00h58.43.260,subsecond_timing_v2,2021.1.2,Win32,60.15399423
space,0.61578,space,0.78507,,,ms_small,0,198,198,198,1,0.847,0.3,False,None,T10,r1,2021-04-25_00h58.43.260,subsecond_timing_v2,2021.1.2,Win32,60.15399423
space,0.66852,space,0.78763,,,ms_small,0,199,199,199,1,0.882,0.2,False,None,T10,r1,2021-04-25_00h58.43.260,subsecond_timing_v2,2021.1.2,Win32,60.15399423
space,0.75229,space,0.79361,,,ms_small,0,200,200,200,1,0.706,0.3,False,None,T10,r1,2021-04-25_00h58.43.260,subsecond_timing_v2,2021.1.2,Win32,60.15399423
space,0.824975,space,0.849805,,,ms_small,0,201,201,201,1,0.812,0.1,False,None,T10,r1,2021-04-25_00h58.43.260,subsecond_timing_v2,2021.1.2,Win32,60.15399423
space,0.75039,space,1.15314,,,ms_small,0,202,202,202,1,1.024,0.2,False,None,T10,r1,2021-04-25_00h58.43.260,subsecond_timing_v2,2021.1.2,Win32,60.15399423
space,0.62257,space,0.8209,,,ms_small,0,203,203,203,1,0.918,0.1,False,None,T10,r1,2021-04-25_00h58.43.260,subsecond_timing_v2,2021.1.2,Win32,60.15399423
space,0.74466,space,0.87845,,,ms_small,0,204,204,204,1,0.776,0.2,False,None,T10,r1,2021-04-25_00h58.43.260,subsecond_timing_v2,2021.1.2,Win32,60.15399423
space,0.617845,space,0.90724,,,ms_small,0,205,205,205,1,0.67,0.1,False,None,T10,r1,2021-04-25_00h58.43.260,subsecond_timing_v2,2021.1.2,Win32,60.15399423
space,0.64597,space,0.887795,,,ms_small,0,206,206,206,1,0.706,0.3,False,None,T10,r1,2021-04-25_00h58.43.260,subsecond_timing_v2,2021.1.2,Win32,60.15399423
space,0.64978,space,1.333295,,,ms_small,0,207,207,207,1,0.988,0.2,False,None,T10,r1,2021-04-25_00h58.43.260,subsecond_timing_v2,2021.1.2,Win32,60.15399423
space,0.66702,space,1.44529,,,ms_small,0,208,208,208,1,0.847,0.3,False,None,T10,r1,2021-04-25_00h58.43.260,subsecond_timing_v2,2021.1.2,Win32,60.15399423
space,0.646915,space,1.267205,,,ms_small,0,209,209,209,1,0.953,0.2,False,None,T10,r1,2021-04-25_00h58.43.260,subsecond_timing_v2,2021.1.2,Win32,60.15399423
space,0.64815,space,1.13328,,,ms_small,0,210,210,210,1,0.812,0.1,False,None,T10,r1,2021-04-25_00h58.43.260,subsecond_timing_v2,2021.1.2,Win32,60.15399423
space,0.40419,space,1.41495,,,ms_small,0,211,211,211,1,0.918,0.1,False,None,T10,r1,2021-04-25_00h58.43.260,subsecond_timing_v2,2021.1.2,Win32,60.15399423
space,0.675745,space,0.816645,,,ms_small,0,212,212,212,1,0.741,0.3,False,None,T10,r1,2021-04-25_00h58.43.260,subsecond_timing_v2,2021.1.2,Win32,60.15399423
space,0.545265,space,0.77281,,,ms_small,0,213,213,213,1,0.882,0.3,False,None,T10,r1,2021-04-25_00h58.43.260,subsecond_timing_v2,2021.1.2,Win32,60.15399423
space,0.582095,space,1.093855,,,ms_small,0,214,214,214,1,1.024,0.1,False,None,T10,r1,2021-04-25_00h58.43.260,subsecond_timing_v2,2021.1.2,Win32,60.15399423
space,0.6357,space,1.41221,,,ms_small,0,215,215,215,1,1.024,0.2,False,None,T10,r1,2021-04-25_00h58.43.260,subsecond_timing_v2,2021.1.2,Win32,60.15399423
space,0.728715,space,0.79143,,,ms_small,0,216,216,216,1,0.706,0.2,False,None,T10,r1,2021-04-25_00h58.43.260,subsecond_timing_v2,2021.1.2,Win32,60.15399423
space,0.587565,space,1.133275,,,ms_small,0,217,217,217,1,0.882,0.1,False,None,T10,r1,2021-04-25_00h58.43.260,subsecond_timing_v2,2021.1.2,Win32,60.15399423
space,0.72951,space,0.732795,,,ms_small,0,218,218,218,1,0.776,0.2,False,None,T10,r1,2021-04-25_00h58.43.260,subsecond_timing_v2,2021.1.2,Win32,60.15399423
space,0.628175,space,0.79412,,,ms_small,0,219,219,219,1,0.847,0.2,False,None,T10,r1,2021-04-25_00h58.43.260,subsecond_timing_v2,2021.1.2,Win32,60.15399423
space,0.533325,space,0.667545,,,ms_small,0,220,220,220,1,0.812,0.1,False,None,T10,r1,2021-04-25_00h58.43.260,subsecond_timing_v2,2021.1.2,Win32,60.15399423
space,0.699695,space,1.05095,,,ms_small,0,221,221,221,1,0.988,0.1,False,None,T10,r1,2021-04-25_00h58.43.260,subsecond_timing_v2,2021.1.2,Win32,60.15399423
space,0.494565,space,1.33348,,,ms_small,0,222,222,222,1,0.918,0.1,False,None,T10,r1,2021-04-25_00h58.43.260,subsecond_timing_v2,2021.1.2,Win32,60.15399423
space,0.6794,space,0.587265,,,ms_small,0,223,223,223,1,0.67,0.2,False,None,T10,r1,2021-04-25_00h58.43.260,subsecond_timing_v2,2021.1.2,Win32,60.15399423
space,0.49385,space,0.93391,,,ms_small,0,224,224,224,1,0.741,0.3,False,None,T10,r1,2021-04-25_00h58.43.260,subsecond_timing_v2,2021.1.2,Win32,60.15399423
space,0.73388,space,1.25016,,,ms_small,0,225,225,225,1,0.953,0.1,False,None,T10,r1,2021-04-25_00h58.43.260,subsecond_timing_v2,2021.1.2,Win32,60.15399423
