key_resp_start.keys,key_resp_start.rt,key_resp_stop.keys,key_resp_stop.rt,feedback_range,hit,stimulus_range,trials.thisRepN,trials.thisTrialN,trials.thisN,trials.thisIndex,trials.ran,stimulus_duration,onset,feedback,feedback_range_fromfile,participant,session,date,expName,psychopyVersion,OS,frameRate,fbclid
space,0.735,space,1.883,0.3,TRUE,Training,0,0,0,0,1,2,0.1,True,0.3,T11,r3,2021-04-27_13h50.59.849,subsecond_timing_v2,2021.1.2,MacIntel,58.82352941,IwAR067z7WYGYwW_JyNOc5GZrmf-_f7ElzRcTTKnU5XsUw6ja0R3b6eJXt5Tg
space,0.97,space,4.236,0.3,TRUE,Training,0,1,1,1,1,5,0.2,True,0.3,T11,r3,2021-04-27_13h50.59.849,subsecond_timing_v2,2021.1.2,MacIntel,58.82352941,IwAR067z7WYGYwW_JyNOc5GZrmf-_f7ElzRcTTKnU5XsUw6ja0R3b6eJXt5Tg
space,0.554,space,2.809,0.3,TRUE,Training,0,2,2,2,1,4,0.1,True,0.3,T11,r3,2021-04-27_13h50.59.849,subsecond_timing_v2,2021.1.2,MacIntel,58.82352941,IwAR067z7WYGYwW_JyNOc5GZrmf-_f7ElzRcTTKnU5XsUw6ja0R3b6eJXt5Tg
space,0.484,space,4.342,,,large,0,3,3,3,1,4.5,0.3,False,None,T11,r3,2021-04-27_13h50.59.849,subsecond_timing_v2,2021.1.2,MacIntel,58.82352941,IwAR067z7WYGYwW_JyNOc5GZrmf-_f7ElzRcTTKnU5XsUw6ja0R3b6eJXt5Tg
space,0.718,space,3.901,,,large,0,4,4,4,1,3.5,0.3,False,None,T11,r3,2021-04-27_13h50.59.849,subsecond_timing_v2,2021.1.2,MacIntel,58.82352941,IwAR067z7WYGYwW_JyNOc5GZrmf-_f7ElzRcTTKnU5XsUw6ja0R3b6eJXt5Tg
space,0.851,space,4.684,,,large,0,5,5,5,1,5.5,0.3,False,None,T11,r3,2021-04-27_13h50.59.849,subsecond_timing_v2,2021.1.2,MacIntel,58.82352941,IwAR067z7WYGYwW_JyNOc5GZrmf-_f7ElzRcTTKnU5XsUw6ja0R3b6eJXt5Tg
space,0.784,space,1.818,,,large,0,6,6,6,1,3,0.1,False,None,T11,r3,2021-04-27_13h50.59.849,subsecond_timing_v2,2021.1.2,MacIntel,58.82352941,IwAR067z7WYGYwW_JyNOc5GZrmf-_f7ElzRcTTKnU5XsUw6ja0R3b6eJXt5Tg
space,0.868,space,1.553,,,large,0,7,7,7,1,2.5,0.1,False,None,T11,r3,2021-04-27_13h50.59.849,subsecond_timing_v2,2021.1.2,MacIntel,58.82352941,IwAR067z7WYGYwW_JyNOc5GZrmf-_f7ElzRcTTKnU5XsUw6ja0R3b6eJXt5Tg
space,0.752,space,3.955,,,large,0,8,8,8,1,5,0.3,False,None,T11,r3,2021-04-27_13h50.59.849,subsecond_timing_v2,2021.1.2,MacIntel,58.82352941,IwAR067z7WYGYwW_JyNOc5GZrmf-_f7ElzRcTTKnU5XsUw6ja0R3b6eJXt5Tg
space,0.488,space,4.936,,,large,0,9,9,9,1,6,0.3,False,None,T11,r3,2021-04-27_13h50.59.849,subsecond_timing_v2,2021.1.2,MacIntel,58.82352941,IwAR067z7WYGYwW_JyNOc5GZrmf-_f7ElzRcTTKnU5XsUw6ja0R3b6eJXt5Tg
space,1.169,space,1.42,,,large,0,10,10,10,1,2,0.2,False,None,T11,r3,2021-04-27_13h50.59.849,subsecond_timing_v2,2021.1.2,MacIntel,58.82352941,IwAR067z7WYGYwW_JyNOc5GZrmf-_f7ElzRcTTKnU5XsUw6ja0R3b6eJXt5Tg
space,0.69,space,3.335,,,large,0,11,11,11,1,4,0.1,False,None,T11,r3,2021-04-27_13h50.59.849,subsecond_timing_v2,2021.1.2,MacIntel,58.82352941,IwAR067z7WYGYwW_JyNOc5GZrmf-_f7ElzRcTTKnU5XsUw6ja0R3b6eJXt5Tg
space,1.638,space,2.424,,,large,0,12,12,12,1,2.5,0.3,False,None,T11,r3,2021-04-27_13h50.59.849,subsecond_timing_v2,2021.1.2,MacIntel,58.82352941,IwAR067z7WYGYwW_JyNOc5GZrmf-_f7ElzRcTTKnU5XsUw6ja0R3b6eJXt5Tg
space,1.172,space,2.785,,,large,0,13,13,13,1,4,0.1,False,None,T11,r3,2021-04-27_13h50.59.849,subsecond_timing_v2,2021.1.2,MacIntel,58.82352941,IwAR067z7WYGYwW_JyNOc5GZrmf-_f7ElzRcTTKnU5XsUw6ja0R3b6eJXt5Tg
space,0.707,space,3.302,,,large,0,14,14,14,1,3.5,0.3,False,None,T11,r3,2021-04-27_13h50.59.849,subsecond_timing_v2,2021.1.2,MacIntel,58.82352941,IwAR067z7WYGYwW_JyNOc5GZrmf-_f7ElzRcTTKnU5XsUw6ja0R3b6eJXt5Tg
space,0.868,space,4.801,,,large,0,15,15,15,1,5.5,0.1,False,None,T11,r3,2021-04-27_13h50.59.849,subsecond_timing_v2,2021.1.2,MacIntel,58.82352941,IwAR067z7WYGYwW_JyNOc5GZrmf-_f7ElzRcTTKnU5XsUw6ja0R3b6eJXt5Tg
space,0.752,space,5.651,,,large,0,16,16,16,1,6,0.1,False,None,T11,r3,2021-04-27_13h50.59.849,subsecond_timing_v2,2021.1.2,MacIntel,58.82352941,IwAR067z7WYGYwW_JyNOc5GZrmf-_f7ElzRcTTKnU5XsUw6ja0R3b6eJXt5Tg
space,0.721,space,2.338,,,large,0,17,17,17,1,3,0.2,False,None,T11,r3,2021-04-27_13h50.59.849,subsecond_timing_v2,2021.1.2,MacIntel,58.82352941,IwAR067z7WYGYwW_JyNOc5GZrmf-_f7ElzRcTTKnU5XsUw6ja0R3b6eJXt5Tg
space,1.002,space,1.602,,,large,0,18,18,18,1,2,0.2,False,None,T11,r3,2021-04-27_13h50.59.849,subsecond_timing_v2,2021.1.2,MacIntel,58.82352941,IwAR067z7WYGYwW_JyNOc5GZrmf-_f7ElzRcTTKnU5XsUw6ja0R3b6eJXt5Tg
space,0.956,space,2.485,,,large,0,19,19,19,1,5,0.2,False,None,T11,r3,2021-04-27_13h50.59.849,subsecond_timing_v2,2021.1.2,MacIntel,58.82352941,IwAR067z7WYGYwW_JyNOc5GZrmf-_f7ElzRcTTKnU5XsUw6ja0R3b6eJXt5Tg
space,0.891,space,3.202,,,large,0,20,20,20,1,4.5,0.3,False,None,T11,r3,2021-04-27_13h50.59.849,subsecond_timing_v2,2021.1.2,MacIntel,58.82352941,IwAR067z7WYGYwW_JyNOc5GZrmf-_f7ElzRcTTKnU5XsUw6ja0R3b6eJXt5Tg
space,0.501,space,3.175,,,large,0,21,21,21,1,3.5,0.2,False,None,T11,r3,2021-04-27_13h50.59.849,subsecond_timing_v2,2021.1.2,MacIntel,58.82352941,IwAR067z7WYGYwW_JyNOc5GZrmf-_f7ElzRcTTKnU5XsUw6ja0R3b6eJXt5Tg
space,0.953,space,2.652,,,large,0,22,22,22,1,3,0.2,False,None,T11,r3,2021-04-27_13h50.59.849,subsecond_timing_v2,2021.1.2,MacIntel,58.82352941,IwAR067z7WYGYwW_JyNOc5GZrmf-_f7ElzRcTTKnU5XsUw6ja0R3b6eJXt5Tg
space,0.874,space,5.277,,,large,0,23,23,23,1,5.5,0.1,False,None,T11,r3,2021-04-27_13h50.59.849,subsecond_timing_v2,2021.1.2,MacIntel,58.82352941,IwAR067z7WYGYwW_JyNOc5GZrmf-_f7ElzRcTTKnU5XsUw6ja0R3b6eJXt5Tg
space,0.967,space,1.7,,,large,0,24,24,24,1,2,0.1,False,None,T11,r3,2021-04-27_13h50.59.849,subsecond_timing_v2,2021.1.2,MacIntel,58.82352941,IwAR067z7WYGYwW_JyNOc5GZrmf-_f7ElzRcTTKnU5XsUw6ja0R3b6eJXt5Tg
space,0.834,space,4.557,,,large,0,25,25,25,1,6,0.3,False,None,T11,r3,2021-04-27_13h50.59.849,subsecond_timing_v2,2021.1.2,MacIntel,58.82352941,IwAR067z7WYGYwW_JyNOc5GZrmf-_f7ElzRcTTKnU5XsUw6ja0R3b6eJXt5Tg
space,0.752,space,2.007,,,large,0,26,26,26,1,2.5,0.1,False,None,T11,r3,2021-04-27_13h50.59.849,subsecond_timing_v2,2021.1.2,MacIntel,58.82352941,IwAR067z7WYGYwW_JyNOc5GZrmf-_f7ElzRcTTKnU5XsUw6ja0R3b6eJXt5Tg
space,1.086,space,4.25,,,large,0,27,27,27,1,4,0.2,False,None,T11,r3,2021-04-27_13h50.59.849,subsecond_timing_v2,2021.1.2,MacIntel,58.82352941,IwAR067z7WYGYwW_JyNOc5GZrmf-_f7ElzRcTTKnU5XsUw6ja0R3b6eJXt5Tg
space,0.566,space,2.437,,,large,0,28,28,28,1,4.5,0.3,False,None,T11,r3,2021-04-27_13h50.59.849,subsecond_timing_v2,2021.1.2,MacIntel,58.82352941,IwAR067z7WYGYwW_JyNOc5GZrmf-_f7ElzRcTTKnU5XsUw6ja0R3b6eJXt5Tg
space,0.901,space,3.183,,,large,0,29,29,29,1,5,0.1,False,None,T11,r3,2021-04-27_13h50.59.849,subsecond_timing_v2,2021.1.2,MacIntel,58.82352941,IwAR067z7WYGYwW_JyNOc5GZrmf-_f7ElzRcTTKnU5XsUw6ja0R3b6eJXt5Tg
space,0.72,space,2.074,,,large,0,30,30,30,1,2.5,0.3,False,None,T11,r3,2021-04-27_13h50.59.849,subsecond_timing_v2,2021.1.2,MacIntel,58.82352941,IwAR067z7WYGYwW_JyNOc5GZrmf-_f7ElzRcTTKnU5XsUw6ja0R3b6eJXt5Tg
space,1.188,space,7.204,,,large,0,31,31,31,1,6,0.1,False,None,T11,r3,2021-04-27_13h50.59.849,subsecond_timing_v2,2021.1.2,MacIntel,58.82352941,IwAR067z7WYGYwW_JyNOc5GZrmf-_f7ElzRcTTKnU5XsUw6ja0R3b6eJXt5Tg
space,1.151,space,4.403,,,large,0,32,32,32,1,5,0.3,False,None,T11,r3,2021-04-27_13h50.59.849,subsecond_timing_v2,2021.1.2,MacIntel,58.82352941,IwAR067z7WYGYwW_JyNOc5GZrmf-_f7ElzRcTTKnU5XsUw6ja0R3b6eJXt5Tg
space,0.953,space,4.407,,,large,0,33,33,33,1,3.5,0.1,False,None,T11,r3,2021-04-27_13h50.59.849,subsecond_timing_v2,2021.1.2,MacIntel,58.82352941,IwAR067z7WYGYwW_JyNOc5GZrmf-_f7ElzRcTTKnU5XsUw6ja0R3b6eJXt5Tg
space,1.136,space,3.359,,,large,0,34,34,34,1,3,0.1,False,None,T11,r3,2021-04-27_13h50.59.849,subsecond_timing_v2,2021.1.2,MacIntel,58.82352941,IwAR067z7WYGYwW_JyNOc5GZrmf-_f7ElzRcTTKnU5XsUw6ja0R3b6eJXt5Tg
space,0.858,space,4.886,,,large,0,35,35,35,1,5.5,0.2,False,None,T11,r3,2021-04-27_13h50.59.849,subsecond_timing_v2,2021.1.2,MacIntel,58.82352941,IwAR067z7WYGYwW_JyNOc5GZrmf-_f7ElzRcTTKnU5XsUw6ja0R3b6eJXt5Tg
space,1.073,space,1.076,,,large,0,36,36,36,1,2,0.2,False,None,T11,r3,2021-04-27_13h50.59.849,subsecond_timing_v2,2021.1.2,MacIntel,58.82352941,IwAR067z7WYGYwW_JyNOc5GZrmf-_f7ElzRcTTKnU5XsUw6ja0R3b6eJXt5Tg
space,0.873,space,2.875,,,large,0,37,37,37,1,4,0.2,False,None,T11,r3,2021-04-27_13h50.59.849,subsecond_timing_v2,2021.1.2,MacIntel,58.82352941,IwAR067z7WYGYwW_JyNOc5GZrmf-_f7ElzRcTTKnU5XsUw6ja0R3b6eJXt5Tg
space,0.907,space,5.104,,,large,0,38,38,38,1,4.5,0.2,False,None,T11,r3,2021-04-27_13h50.59.849,subsecond_timing_v2,2021.1.2,MacIntel,58.82352941,IwAR067z7WYGYwW_JyNOc5GZrmf-_f7ElzRcTTKnU5XsUw6ja0R3b6eJXt5Tg
space,0.753,space,3.886,,,large,0,39,39,39,1,4,0.3,False,None,T11,r3,2021-04-27_13h50.59.849,subsecond_timing_v2,2021.1.2,MacIntel,58.82352941,IwAR067z7WYGYwW_JyNOc5GZrmf-_f7ElzRcTTKnU5XsUw6ja0R3b6eJXt5Tg
space,0.868,space,3.719,,,large,0,40,40,40,1,3,0.3,False,None,T11,r3,2021-04-27_13h50.59.849,subsecond_timing_v2,2021.1.2,MacIntel,58.82352941,IwAR067z7WYGYwW_JyNOc5GZrmf-_f7ElzRcTTKnU5XsUw6ja0R3b6eJXt5Tg
space,0.668,space,5.972,,,large,0,41,41,41,1,4.5,0.1,False,None,T11,r3,2021-04-27_13h50.59.849,subsecond_timing_v2,2021.1.2,MacIntel,58.82352941,IwAR067z7WYGYwW_JyNOc5GZrmf-_f7ElzRcTTKnU5XsUw6ja0R3b6eJXt5Tg
space,0.703,space,5.523,,,large,0,42,42,42,1,5,0.2,False,None,T11,r3,2021-04-27_13h50.59.849,subsecond_timing_v2,2021.1.2,MacIntel,58.82352941,IwAR067z7WYGYwW_JyNOc5GZrmf-_f7ElzRcTTKnU5XsUw6ja0R3b6eJXt5Tg
space,0.788,space,2.155,,,large,0,43,43,43,1,2,0.2,False,None,T11,r3,2021-04-27_13h50.59.849,subsecond_timing_v2,2021.1.2,MacIntel,58.82352941,IwAR067z7WYGYwW_JyNOc5GZrmf-_f7ElzRcTTKnU5XsUw6ja0R3b6eJXt5Tg
space,1.207,space,5.452,,,large,0,44,44,44,1,6,0.1,False,None,T11,r3,2021-04-27_13h50.59.849,subsecond_timing_v2,2021.1.2,MacIntel,58.82352941,IwAR067z7WYGYwW_JyNOc5GZrmf-_f7ElzRcTTKnU5XsUw6ja0R3b6eJXt5Tg
space,0.54,space,6.168,,,large,0,45,45,45,1,5.5,0.3,False,None,T11,r3,2021-04-27_13h50.59.849,subsecond_timing_v2,2021.1.2,MacIntel,58.82352941,IwAR067z7WYGYwW_JyNOc5GZrmf-_f7ElzRcTTKnU5XsUw6ja0R3b6eJXt5Tg
space,1.518,space,1.185,,,large,0,46,46,46,1,2.5,0.1,False,None,T11,r3,2021-04-27_13h50.59.849,subsecond_timing_v2,2021.1.2,MacIntel,58.82352941,IwAR067z7WYGYwW_JyNOc5GZrmf-_f7ElzRcTTKnU5XsUw6ja0R3b6eJXt5Tg
space,0.618,space,2.437,,,large,0,47,47,47,1,3.5,0.2,False,None,T11,r3,2021-04-27_13h50.59.849,subsecond_timing_v2,2021.1.2,MacIntel,58.82352941,IwAR067z7WYGYwW_JyNOc5GZrmf-_f7ElzRcTTKnU5XsUw6ja0R3b6eJXt5Tg
space,1.121,space,1.292,,,large,0,48,48,48,1,4,0.1,False,None,T11,r3,2021-04-27_13h50.59.849,subsecond_timing_v2,2021.1.2,MacIntel,58.82352941,IwAR067z7WYGYwW_JyNOc5GZrmf-_f7ElzRcTTKnU5XsUw6ja0R3b6eJXt5Tg
space,1.151,space,7.19,,,large,0,49,49,49,1,6,0.3,False,None,T11,r3,2021-04-27_13h50.59.849,subsecond_timing_v2,2021.1.2,MacIntel,58.82352941,IwAR067z7WYGYwW_JyNOc5GZrmf-_f7ElzRcTTKnU5XsUw6ja0R3b6eJXt5Tg
space,0.802,space,1.152,,,large,0,50,50,50,1,2,0.3,False,None,T11,r3,2021-04-27_13h50.59.849,subsecond_timing_v2,2021.1.2,MacIntel,58.82352941,IwAR067z7WYGYwW_JyNOc5GZrmf-_f7ElzRcTTKnU5XsUw6ja0R3b6eJXt5Tg
space,1.058,space,2.938,,,large,0,51,51,51,1,4.5,0.1,False,None,T11,r3,2021-04-27_13h50.59.849,subsecond_timing_v2,2021.1.2,MacIntel,58.82352941,IwAR067z7WYGYwW_JyNOc5GZrmf-_f7ElzRcTTKnU5XsUw6ja0R3b6eJXt5Tg
space,14.135,space,3.523,,,large,0,52,52,52,1,5.5,0.3,False,None,T11,r3,2021-04-27_13h50.59.849,subsecond_timing_v2,2021.1.2,MacIntel,58.82352941,IwAR067z7WYGYwW_JyNOc5GZrmf-_f7ElzRcTTKnU5XsUw6ja0R3b6eJXt5Tg
space,1.084,space,2.608,,,large,0,53,53,53,1,2.5,0.2,False,None,T11,r3,2021-04-27_13h50.59.849,subsecond_timing_v2,2021.1.2,MacIntel,58.82352941,IwAR067z7WYGYwW_JyNOc5GZrmf-_f7ElzRcTTKnU5XsUw6ja0R3b6eJXt5Tg
space,0.819,space,2.441,,,large,0,54,54,54,1,3.5,0.2,False,None,T11,r3,2021-04-27_13h50.59.849,subsecond_timing_v2,2021.1.2,MacIntel,58.82352941,IwAR067z7WYGYwW_JyNOc5GZrmf-_f7ElzRcTTKnU5XsUw6ja0R3b6eJXt5Tg
space,0.72,space,2.72,,,large,0,55,55,55,1,3,0.3,False,None,T11,r3,2021-04-27_13h50.59.849,subsecond_timing_v2,2021.1.2,MacIntel,58.82352941,IwAR067z7WYGYwW_JyNOc5GZrmf-_f7ElzRcTTKnU5XsUw6ja0R3b6eJXt5Tg
space,0.835,space,3.841,,,large,0,56,56,56,1,5,0.3,False,None,T11,r3,2021-04-27_13h50.59.849,subsecond_timing_v2,2021.1.2,MacIntel,58.82352941,IwAR067z7WYGYwW_JyNOc5GZrmf-_f7ElzRcTTKnU5XsUw6ja0R3b6eJXt5Tg
space,0.868,space,1.452,,,large,0,57,57,57,1,2,0.3,False,None,T11,r3,2021-04-27_13h50.59.849,subsecond_timing_v2,2021.1.2,MacIntel,58.82352941,IwAR067z7WYGYwW_JyNOc5GZrmf-_f7ElzRcTTKnU5XsUw6ja0R3b6eJXt5Tg
space,1.04,space,3.293,,,large,0,58,58,58,1,4,0.2,False,None,T11,r3,2021-04-27_13h50.59.849,subsecond_timing_v2,2021.1.2,MacIntel,58.82352941,IwAR067z7WYGYwW_JyNOc5GZrmf-_f7ElzRcTTKnU5XsUw6ja0R3b6eJXt5Tg
space,0.237,space,5.156,,,large,0,59,59,59,1,6,0.1,False,None,T11,r3,2021-04-27_13h50.59.849,subsecond_timing_v2,2021.1.2,MacIntel,58.82352941,IwAR067z7WYGYwW_JyNOc5GZrmf-_f7ElzRcTTKnU5XsUw6ja0R3b6eJXt5Tg
space,0.972,space,4.602,,,large,0,60,60,60,1,5.5,0.2,False,None,T11,r3,2021-04-27_13h50.59.849,subsecond_timing_v2,2021.1.2,MacIntel,58.82352941,IwAR067z7WYGYwW_JyNOc5GZrmf-_f7ElzRcTTKnU5XsUw6ja0R3b6eJXt5Tg
space,0.803,space,3.551,,,large,0,61,61,61,1,3.5,0.2,False,None,T11,r3,2021-04-27_13h50.59.849,subsecond_timing_v2,2021.1.2,MacIntel,58.82352941,IwAR067z7WYGYwW_JyNOc5GZrmf-_f7ElzRcTTKnU5XsUw6ja0R3b6eJXt5Tg
space,0.791,space,4.486,,,large,0,62,62,62,1,5,0.2,False,None,T11,r3,2021-04-27_13h50.59.849,subsecond_timing_v2,2021.1.2,MacIntel,58.82352941,IwAR067z7WYGYwW_JyNOc5GZrmf-_f7ElzRcTTKnU5XsUw6ja0R3b6eJXt5Tg
space,0.984,space,1.574,,,large,0,63,63,63,1,2.5,0.3,False,None,T11,r3,2021-04-27_13h50.59.849,subsecond_timing_v2,2021.1.2,MacIntel,58.82352941,IwAR067z7WYGYwW_JyNOc5GZrmf-_f7ElzRcTTKnU5XsUw6ja0R3b6eJXt5Tg
space,0.954,space,3.985,,,large,0,64,64,64,1,3,0.1,False,None,T11,r3,2021-04-27_13h50.59.849,subsecond_timing_v2,2021.1.2,MacIntel,58.82352941,IwAR067z7WYGYwW_JyNOc5GZrmf-_f7ElzRcTTKnU5XsUw6ja0R3b6eJXt5Tg
space,0.203,space,2.535,,,large,0,65,65,65,1,4.5,0.3,False,None,T11,r3,2021-04-27_13h50.59.849,subsecond_timing_v2,2021.1.2,MacIntel,58.82352941,IwAR067z7WYGYwW_JyNOc5GZrmf-_f7ElzRcTTKnU5XsUw6ja0R3b6eJXt5Tg
space,0.769,space,4.202,,,large,0,66,66,66,1,5.5,0.3,False,None,T11,r3,2021-04-27_13h50.59.849,subsecond_timing_v2,2021.1.2,MacIntel,58.82352941,IwAR067z7WYGYwW_JyNOc5GZrmf-_f7ElzRcTTKnU5XsUw6ja0R3b6eJXt5Tg
space,0.903,space,5.284,,,large,0,67,67,67,1,5,0.3,False,None,T11,r3,2021-04-27_13h50.59.849,subsecond_timing_v2,2021.1.2,MacIntel,58.82352941,IwAR067z7WYGYwW_JyNOc5GZrmf-_f7ElzRcTTKnU5XsUw6ja0R3b6eJXt5Tg
space,1.357,space,2.575,,,large,0,68,68,68,1,3,0.2,False,None,T11,r3,2021-04-27_13h50.59.849,subsecond_timing_v2,2021.1.2,MacIntel,58.82352941,IwAR067z7WYGYwW_JyNOc5GZrmf-_f7ElzRcTTKnU5XsUw6ja0R3b6eJXt5Tg
space,0.816,space,2.941,,,large,0,69,69,69,1,2.5,0.3,False,None,T11,r3,2021-04-27_13h50.59.849,subsecond_timing_v2,2021.1.2,MacIntel,58.82352941,IwAR067z7WYGYwW_JyNOc5GZrmf-_f7ElzRcTTKnU5XsUw6ja0R3b6eJXt5Tg
space,0.505,space,6.936,,,large,0,70,70,70,1,6,0.1,False,None,T11,r3,2021-04-27_13h50.59.849,subsecond_timing_v2,2021.1.2,MacIntel,58.82352941,IwAR067z7WYGYwW_JyNOc5GZrmf-_f7ElzRcTTKnU5XsUw6ja0R3b6eJXt5Tg
space,1.404,space,3.471,,,large,0,71,71,71,1,4,0.1,False,None,T11,r3,2021-04-27_13h50.59.849,subsecond_timing_v2,2021.1.2,MacIntel,58.82352941,IwAR067z7WYGYwW_JyNOc5GZrmf-_f7ElzRcTTKnU5XsUw6ja0R3b6eJXt5Tg
space,1.224,space,1.102,,,large,0,72,72,72,1,2,0.1,False,None,T11,r3,2021-04-27_13h50.59.849,subsecond_timing_v2,2021.1.2,MacIntel,58.82352941,IwAR067z7WYGYwW_JyNOc5GZrmf-_f7ElzRcTTKnU5XsUw6ja0R3b6eJXt5Tg
space,0.936,space,3.626,,,large,0,73,73,73,1,4.5,0.1,False,None,T11,r3,2021-04-27_13h50.59.849,subsecond_timing_v2,2021.1.2,MacIntel,58.82352941,IwAR067z7WYGYwW_JyNOc5GZrmf-_f7ElzRcTTKnU5XsUw6ja0R3b6eJXt5Tg
space,0.974,space,2.99,,,large,0,74,74,74,1,3.5,0.3,False,None,T11,r3,2021-04-27_13h50.59.849,subsecond_timing_v2,2021.1.2,MacIntel,58.82352941,IwAR067z7WYGYwW_JyNOc5GZrmf-_f7ElzRcTTKnU5XsUw6ja0R3b6eJXt5Tg
space,0.452,space,5.141,,,large,0,75,75,75,1,5.5,0.1,False,None,T11,r3,2021-04-27_13h50.59.849,subsecond_timing_v2,2021.1.2,MacIntel,58.82352941,IwAR067z7WYGYwW_JyNOc5GZrmf-_f7ElzRcTTKnU5XsUw6ja0R3b6eJXt5Tg
space,0.386,space,6.503,,,large,0,76,76,76,1,6,0.2,False,None,T11,r3,2021-04-27_13h50.59.849,subsecond_timing_v2,2021.1.2,MacIntel,58.82352941,IwAR067z7WYGYwW_JyNOc5GZrmf-_f7ElzRcTTKnU5XsUw6ja0R3b6eJXt5Tg
space,2.269,space,5.858,,,large,0,77,77,77,1,2.5,0.1,False,None,T11,r3,2021-04-27_13h50.59.849,subsecond_timing_v2,2021.1.2,MacIntel,58.82352941,IwAR067z7WYGYwW_JyNOc5GZrmf-_f7ElzRcTTKnU5XsUw6ja0R3b6eJXt5Tg
space,0.79,space,4.956,,,large,0,78,78,78,1,5,0.1,False,None,T11,r3,2021-04-27_13h50.59.849,subsecond_timing_v2,2021.1.2,MacIntel,58.82352941,IwAR067z7WYGYwW_JyNOc5GZrmf-_f7ElzRcTTKnU5XsUw6ja0R3b6eJXt5Tg
space,0.62,space,4.488,,,large,0,79,79,79,1,4,0.1,False,None,T11,r3,2021-04-27_13h50.59.849,subsecond_timing_v2,2021.1.2,MacIntel,58.82352941,IwAR067z7WYGYwW_JyNOc5GZrmf-_f7ElzRcTTKnU5XsUw6ja0R3b6eJXt5Tg
space,0.493,space,6.136,,,large,0,80,80,80,1,3.5,0.1,False,None,T11,r3,2021-04-27_13h50.59.849,subsecond_timing_v2,2021.1.2,MacIntel,58.82352941,IwAR067z7WYGYwW_JyNOc5GZrmf-_f7ElzRcTTKnU5XsUw6ja0R3b6eJXt5Tg
space,0.935,space,1.406,,,large,0,81,81,81,1,2,0.1,False,None,T11,r3,2021-04-27_13h50.59.849,subsecond_timing_v2,2021.1.2,MacIntel,58.82352941,IwAR067z7WYGYwW_JyNOc5GZrmf-_f7ElzRcTTKnU5XsUw6ja0R3b6eJXt5Tg
space,0.719,space,3.275,,,large,0,82,82,82,1,4.5,0.1,False,None,T11,r3,2021-04-27_13h50.59.849,subsecond_timing_v2,2021.1.2,MacIntel,58.82352941,IwAR067z7WYGYwW_JyNOc5GZrmf-_f7ElzRcTTKnU5XsUw6ja0R3b6eJXt5Tg
space,0.867,space,3.217,,,large,0,83,83,83,1,3,0.2,False,None,T11,r3,2021-04-27_13h50.59.849,subsecond_timing_v2,2021.1.2,MacIntel,58.82352941,IwAR067z7WYGYwW_JyNOc5GZrmf-_f7ElzRcTTKnU5XsUw6ja0R3b6eJXt5Tg
space,0.752,space,3.04,,,large,0,84,84,84,1,2.5,0.2,False,None,T11,r3,2021-04-27_13h50.59.849,subsecond_timing_v2,2021.1.2,MacIntel,58.82352941,IwAR067z7WYGYwW_JyNOc5GZrmf-_f7ElzRcTTKnU5XsUw6ja0R3b6eJXt5Tg
space,0.74,space,6.002,,,large,0,85,85,85,1,6,0.1,False,None,T11,r3,2021-04-27_13h50.59.849,subsecond_timing_v2,2021.1.2,MacIntel,58.82352941,IwAR067z7WYGYwW_JyNOc5GZrmf-_f7ElzRcTTKnU5XsUw6ja0R3b6eJXt5Tg
space,0.488,space,4.375,,,large,0,86,86,86,1,5,0.3,False,None,T11,r3,2021-04-27_13h50.59.849,subsecond_timing_v2,2021.1.2,MacIntel,58.82352941,IwAR067z7WYGYwW_JyNOc5GZrmf-_f7ElzRcTTKnU5XsUw6ja0R3b6eJXt5Tg
space,0.722,space,1.322,,,large,0,87,87,87,1,2,0.3,False,None,T11,r3,2021-04-27_13h50.59.849,subsecond_timing_v2,2021.1.2,MacIntel,58.82352941,IwAR067z7WYGYwW_JyNOc5GZrmf-_f7ElzRcTTKnU5XsUw6ja0R3b6eJXt5Tg
space,0.574,space,4.209,,,large,0,88,88,88,1,4,0.3,False,None,T11,r3,2021-04-27_13h50.59.849,subsecond_timing_v2,2021.1.2,MacIntel,58.82352941,IwAR067z7WYGYwW_JyNOc5GZrmf-_f7ElzRcTTKnU5XsUw6ja0R3b6eJXt5Tg
space,0.785,space,2.867,,,large,0,89,89,89,1,3.5,0.1,False,None,T11,r3,2021-04-27_13h50.59.849,subsecond_timing_v2,2021.1.2,MacIntel,58.82352941,IwAR067z7WYGYwW_JyNOc5GZrmf-_f7ElzRcTTKnU5XsUw6ja0R3b6eJXt5Tg
space,1.657,space,6.223,,,large,0,90,90,90,1,4.5,0.1,False,None,T11,r3,2021-04-27_13h50.59.849,subsecond_timing_v2,2021.1.2,MacIntel,58.82352941,IwAR067z7WYGYwW_JyNOc5GZrmf-_f7ElzRcTTKnU5XsUw6ja0R3b6eJXt5Tg
space,1.621,space,5.441,,,large,0,91,91,91,1,3,0.2,False,None,T11,r3,2021-04-27_13h50.59.849,subsecond_timing_v2,2021.1.2,MacIntel,58.82352941,IwAR067z7WYGYwW_JyNOc5GZrmf-_f7ElzRcTTKnU5XsUw6ja0R3b6eJXt5Tg
space,1.07,space,4.022,,,large,0,92,92,92,1,5.5,0.3,False,None,T11,r3,2021-04-27_13h50.59.849,subsecond_timing_v2,2021.1.2,MacIntel,58.82352941,IwAR067z7WYGYwW_JyNOc5GZrmf-_f7ElzRcTTKnU5XsUw6ja0R3b6eJXt5Tg
