key_resp_start.keys,key_resp_start.rt,key_resp_stop.keys,key_resp_stop.rt,feedback_range,hit,stimulus_range,trials.thisRepN,trials.thisTrialN,trials.thisN,trials.thisIndex,trials.ran,stimulus_duration,onset,feedback,feedback_range_fromfile,participant,session,date,expName,psychopyVersion,OS,frameRate
space,1.203315,space,1.10656,0.3,TRUE,Training,0,0,0,0,1,1,0.3,True,0.3,T01,r1,2021-04-23_13h00.15.944,subsecond_timing_v2,2021.1.2,Win32,60.62443165
space,0.82243,space,0.84238,0.3,TRUE,Training,0,1,1,1,1,0.75,0.1,True,0.3,T01,r1,2021-04-23_13h00.15.944,subsecond_timing_v2,2021.1.2,Win32,60.62443165
space,0.801305,space,0.70302,0.3,FALSE,Training,0,2,2,2,1,0.5,0.1,True,0.3,T01,r1,2021-04-23_13h00.15.944,subsecond_timing_v2,2021.1.2,Win32,60.62443165
space,0.788085,space,0.75166,0.3,FALSE,Training,0,3,3,3,1,0.5,0.2,True,0.3,T01,r1,2021-04-23_13h00.15.944,subsecond_timing_v2,2021.1.2,Win32,60.62443165
space,0.868445,space,0.83261,0.3,TRUE,Training,0,4,4,4,1,0.75,0.2,True,0.3,T01,r1,2021-04-23_13h00.15.944,subsecond_timing_v2,2021.1.2,Win32,60.62443165
space,0.8097,space,0.866345,0.3,TRUE,Training,0,5,5,5,1,1,0.3,True,0.3,T01,r1,2021-04-23_13h00.15.944,subsecond_timing_v2,2021.1.2,Win32,60.62443165
space,1.00162,space,0.86653,,,ms_small,0,6,6,6,1,0.706,0.2,False,None,T01,r1,2021-04-23_13h00.15.944,subsecond_timing_v2,2021.1.2,Win32,60.62443165
space,1.100885,space,0.78411,,,ms_small,0,7,7,7,1,0.812,0.3,False,None,T01,r1,2021-04-23_13h00.15.944,subsecond_timing_v2,2021.1.2,Win32,60.62443165
space,0.934795,space,0.82029,,,ms_small,0,8,8,8,1,0.847,0.1,False,None,T01,r1,2021-04-23_13h00.15.944,subsecond_timing_v2,2021.1.2,Win32,60.62443165
space,0.87082,space,0.828825,,,ms_small,0,9,9,9,1,0.67,0.3,False,None,T01,r1,2021-04-23_13h00.15.944,subsecond_timing_v2,2021.1.2,Win32,60.62443165
space,0.938,space,0.835895,,,ms_small,0,10,10,10,1,0.988,0.1,False,None,T01,r1,2021-04-23_13h00.15.944,subsecond_timing_v2,2021.1.2,Win32,60.62443165
space,0.892385,space,0.800645,,,ms_small,0,11,11,11,1,0.953,0.1,False,None,T01,r1,2021-04-23_13h00.15.944,subsecond_timing_v2,2021.1.2,Win32,60.62443165
space,0.83091,space,0.767725,,,ms_small,0,12,12,12,1,0.882,0.3,False,None,T01,r1,2021-04-23_13h00.15.944,subsecond_timing_v2,2021.1.2,Win32,60.62443165
space,0.85049,space,0.89728,,,ms_small,0,13,13,13,1,0.918,0.1,False,None,T01,r1,2021-04-23_13h00.15.944,subsecond_timing_v2,2021.1.2,Win32,60.62443165
space,1.08524,space,0.834085,,,ms_small,0,14,14,14,1,0.776,0.2,False,None,T01,r1,2021-04-23_13h00.15.944,subsecond_timing_v2,2021.1.2,Win32,60.62443165
space,0.87533,space,0.75197,,,ms_small,0,15,15,15,1,0.741,0.3,False,None,T01,r1,2021-04-23_13h00.15.944,subsecond_timing_v2,2021.1.2,Win32,60.62443165
space,1.105985,space,1.001995,,,ms_small,0,16,16,16,1,1.024,0.3,False,None,T01,r1,2021-04-23_13h00.15.944,subsecond_timing_v2,2021.1.2,Win32,60.62443165
space,0.903595,space,0.61656,,,ms_small,0,17,17,17,1,0.67,0.1,False,None,T01,r1,2021-04-23_13h00.15.944,subsecond_timing_v2,2021.1.2,Win32,60.62443165
space,0.805255,space,0.67776,,,ms_small,0,18,18,18,1,0.812,0.3,False,None,T01,r1,2021-04-23_13h00.15.944,subsecond_timing_v2,2021.1.2,Win32,60.62443165
space,1.093185,space,1.043035,,,ms_small,0,19,19,19,1,0.953,0.3,False,None,T01,r1,2021-04-23_13h00.15.944,subsecond_timing_v2,2021.1.2,Win32,60.62443165
space,0.922,space,0.83678,,,ms_small,0,20,20,20,1,0.776,0.1,False,None,T01,r1,2021-04-23_13h00.15.944,subsecond_timing_v2,2021.1.2,Win32,60.62443165
space,0.95149,space,0.784335,,,ms_small,0,21,21,21,1,0.741,0.2,False,None,T01,r1,2021-04-23_13h00.15.944,subsecond_timing_v2,2021.1.2,Win32,60.62443165
space,0.83541,space,0.850285,,,ms_small,0,22,22,22,1,0.847,0.2,False,None,T01,r1,2021-04-23_13h00.15.944,subsecond_timing_v2,2021.1.2,Win32,60.62443165
space,0.858075,space,0.86358,,,ms_small,0,23,23,23,1,1.024,0.1,False,None,T01,r1,2021-04-23_13h00.15.944,subsecond_timing_v2,2021.1.2,Win32,60.62443165
space,0.93359,space,0.834565,,,ms_small,0,24,24,24,1,0.882,0.3,False,None,T01,r1,2021-04-23_13h00.15.944,subsecond_timing_v2,2021.1.2,Win32,60.62443165
space,0.975105,space,0.964295,,,ms_small,0,25,25,25,1,0.988,0.1,False,None,T01,r1,2021-04-23_13h00.15.944,subsecond_timing_v2,2021.1.2,Win32,60.62443165
space,0.987465,space,0.803095,,,ms_small,0,26,26,26,1,0.706,0.2,False,None,T01,r1,2021-04-23_13h00.15.944,subsecond_timing_v2,2021.1.2,Win32,60.62443165
space,0.860985,space,0.847345,,,ms_small,0,27,27,27,1,0.918,0.3,False,None,T01,r1,2021-04-23_13h00.15.944,subsecond_timing_v2,2021.1.2,Win32,60.62443165
space,0.806665,space,0.87495,,,ms_small,0,28,28,28,1,0.706,0.1,False,None,T01,r1,2021-04-23_13h00.15.944,subsecond_timing_v2,2021.1.2,Win32,60.62443165
space,0.84987,space,0.91776,,,ms_small,0,29,29,29,1,0.918,0.1,False,None,T01,r1,2021-04-23_13h00.15.944,subsecond_timing_v2,2021.1.2,Win32,60.62443165
space,0.933305,space,0.779775,,,ms_small,0,30,30,30,1,0.67,0.2,False,None,T01,r1,2021-04-23_13h00.15.944,subsecond_timing_v2,2021.1.2,Win32,60.62443165
space,0.71856,space,0.827845,,,ms_small,0,31,31,31,1,0.988,0.1,False,None,T01,r1,2021-04-23_13h00.15.944,subsecond_timing_v2,2021.1.2,Win32,60.62443165
space,0.85076,space,0.85073,,,ms_small,0,32,32,32,1,0.953,0.2,False,None,T01,r1,2021-04-23_13h00.15.944,subsecond_timing_v2,2021.1.2,Win32,60.62443165
space,0.91775,space,0.767575,,,ms_small,0,33,33,33,1,0.776,0.1,False,None,T01,r1,2021-04-23_13h00.15.944,subsecond_timing_v2,2021.1.2,Win32,60.62443165
space,1.03431,space,0.750635,,,ms_small,0,34,34,34,1,0.847,0.1,False,None,T01,r1,2021-04-23_13h00.15.944,subsecond_timing_v2,2021.1.2,Win32,60.62443165
space,0.85071,space,0.784195,,,ms_small,0,35,35,35,1,0.741,0.2,False,None,T01,r1,2021-04-23_13h00.15.944,subsecond_timing_v2,2021.1.2,Win32,60.62443165
space,0.83424,space,0.800675,,,ms_small,0,36,36,36,1,0.812,0.1,False,None,T01,r1,2021-04-23_13h00.15.944,subsecond_timing_v2,2021.1.2,Win32,60.62443165
space,0.784055,space,0.734095,,,ms_small,0,37,37,37,1,0.882,0.1,False,None,T01,r1,2021-04-23_13h00.15.944,subsecond_timing_v2,2021.1.2,Win32,60.62443165
space,0.851585,space,0.834135,,,ms_small,0,38,38,38,1,1.024,0.3,False,None,T01,r1,2021-04-23_13h00.15.944,subsecond_timing_v2,2021.1.2,Win32,60.62443165
space,0.767635,space,0.867585,,,ms_small,0,39,39,39,1,0.847,0.2,False,None,T01,r1,2021-04-23_13h00.15.944,subsecond_timing_v2,2021.1.2,Win32,60.62443165
space,0.834225,space,0.800725,,,ms_small,0,40,40,40,1,0.918,0.2,False,None,T01,r1,2021-04-23_13h00.15.944,subsecond_timing_v2,2021.1.2,Win32,60.62443165
space,0.84016,space,0.88416,,,ms_small,0,41,41,41,1,0.953,0.1,False,None,T01,r1,2021-04-23_13h00.15.944,subsecond_timing_v2,2021.1.2,Win32,60.62443165
space,0.941925,space,0.85273,,,ms_small,0,42,42,42,1,0.882,0.3,False,None,T01,r1,2021-04-23_13h00.15.944,subsecond_timing_v2,2021.1.2,Win32,60.62443165
space,1.01896,space,0.821705,,,ms_small,0,43,43,43,1,0.741,0.2,False,None,T01,r1,2021-04-23_13h00.15.944,subsecond_timing_v2,2021.1.2,Win32,60.62443165
space,0.85813,space,0.71243,,,ms_small,0,44,44,44,1,0.67,0.3,False,None,T01,r1,2021-04-23_13h00.15.944,subsecond_timing_v2,2021.1.2,Win32,60.62443165
space,0.767035,space,0.74589,,,ms_small,0,45,45,45,1,0.812,0.2,False,None,T01,r1,2021-04-23_13h00.15.944,subsecond_timing_v2,2021.1.2,Win32,60.62443165
space,0.954145,space,0.903615,,,ms_small,0,46,46,46,1,1.024,0.3,False,None,T01,r1,2021-04-23_13h00.15.944,subsecond_timing_v2,2021.1.2,Win32,60.62443165
space,0.900605,space,0.69449,,,ms_small,0,47,47,47,1,0.706,0.3,False,None,T01,r1,2021-04-23_13h00.15.944,subsecond_timing_v2,2021.1.2,Win32,60.62443165
space,0.81027,space,0.86742,,,ms_small,0,48,48,48,1,0.988,0.2,False,None,T01,r1,2021-04-23_13h00.15.944,subsecond_timing_v2,2021.1.2,Win32,60.62443165
space,0.77478,space,0.673615,,,ms_small,0,49,49,49,1,0.776,0.1,False,None,T01,r1,2021-04-23_13h00.15.944,subsecond_timing_v2,2021.1.2,Win32,60.62443165
space,0.80445,space,0.850775,,,ms_small,0,50,50,50,1,0.988,0.1,False,None,T01,r1,2021-04-23_13h00.15.944,subsecond_timing_v2,2021.1.2,Win32,60.62443165
space,0.90571,space,0.864275,,,ms_small,0,51,51,51,1,0.706,0.3,False,None,T01,r1,2021-04-23_13h00.15.944,subsecond_timing_v2,2021.1.2,Win32,60.62443165
space,0.79655,space,0.837105,,,ms_small,0,52,52,52,1,0.953,0.2,False,None,T01,r1,2021-04-23_13h00.15.944,subsecond_timing_v2,2021.1.2,Win32,60.62443165
space,0.80521,space,0.684365,,,ms_small,0,53,53,53,1,0.847,0.2,False,None,T01,r1,2021-04-23_13h00.15.944,subsecond_timing_v2,2021.1.2,Win32,60.62443165
space,0.703145,space,0.875625,,,ms_small,0,54,54,54,1,0.918,0.3,False,None,T01,r1,2021-04-23_13h00.15.944,subsecond_timing_v2,2021.1.2,Win32,60.62443165
space,0.812455,space,0.787585,,,ms_small,0,55,55,55,1,0.741,0.1,False,None,T01,r1,2021-04-23_13h00.15.944,subsecond_timing_v2,2021.1.2,Win32,60.62443165
space,0.77393,space,0.576835,,,ms_small,0,56,56,56,1,0.67,0.1,False,None,T01,r1,2021-04-23_13h00.15.944,subsecond_timing_v2,2021.1.2,Win32,60.62443165
space,0.66411,space,0.696945,,,ms_small,0,57,57,57,1,0.776,0.2,False,None,T01,r1,2021-04-23_13h00.15.944,subsecond_timing_v2,2021.1.2,Win32,60.62443165
space,0.75044,space,0.71812,,,ms_small,0,58,58,58,1,0.882,0.1,False,None,T01,r1,2021-04-23_13h00.15.944,subsecond_timing_v2,2021.1.2,Win32,60.62443165
space,0.761375,space,0.759855,,,ms_small,0,59,59,59,1,0.812,0.2,False,None,T01,r1,2021-04-23_13h00.15.944,subsecond_timing_v2,2021.1.2,Win32,60.62443165
space,0.77501,space,0.779715,,,ms_small,0,60,60,60,1,1.024,0.2,False,None,T01,r1,2021-04-23_13h00.15.944,subsecond_timing_v2,2021.1.2,Win32,60.62443165
space,0.85604,space,0.743005,,,ms_small,0,61,61,61,1,0.847,0.3,False,None,T01,r1,2021-04-23_13h00.15.944,subsecond_timing_v2,2021.1.2,Win32,60.62443165
space,0.903985,space,0.62303,,,ms_small,0,62,62,62,1,0.67,0.1,False,None,T01,r1,2021-04-23_13h00.15.944,subsecond_timing_v2,2021.1.2,Win32,60.62443165
space,0.775425,space,1.00174,,,ms_small,0,63,63,63,1,0.988,0.3,False,None,T01,r1,2021-04-23_13h00.15.944,subsecond_timing_v2,2021.1.2,Win32,60.62443165
space,0.857005,space,0.90051,,,ms_small,0,64,64,64,1,0.812,0.1,False,None,T01,r1,2021-04-23_13h00.15.944,subsecond_timing_v2,2021.1.2,Win32,60.62443165
space,0.87732,space,0.86664,,,ms_small,0,65,65,65,1,0.882,0.3,False,None,T01,r1,2021-04-23_13h00.15.944,subsecond_timing_v2,2021.1.2,Win32,60.62443165
space,0.662875,space,0.86349,,,ms_small,0,66,66,66,1,0.918,0.1,False,None,T01,r1,2021-04-23_13h00.15.944,subsecond_timing_v2,2021.1.2,Win32,60.62443165
space,0.74048,space,0.95092,,,ms_small,0,67,67,67,1,1.024,0.1,False,None,T01,r1,2021-04-23_13h00.15.944,subsecond_timing_v2,2021.1.2,Win32,60.62443165
space,0.756,space,0.829625,,,ms_small,0,68,68,68,1,0.776,0.2,False,None,T01,r1,2021-04-23_13h00.15.944,subsecond_timing_v2,2021.1.2,Win32,60.62443165
space,0.662685,space,0.75659,,,ms_small,0,69,69,69,1,0.953,0.1,False,None,T01,r1,2021-04-23_13h00.15.944,subsecond_timing_v2,2021.1.2,Win32,60.62443165
space,0.734,space,0.817605,,,ms_small,0,70,70,70,1,0.706,0.1,False,None,T01,r1,2021-04-23_13h00.15.944,subsecond_timing_v2,2021.1.2,Win32,60.62443165
space,0.75169,space,0.822455,,,ms_small,0,71,71,71,1,0.741,0.3,False,None,T01,r1,2021-04-23_13h00.15.944,subsecond_timing_v2,2021.1.2,Win32,60.62443165
space,0.776665,space,0.81831,,,ms_small,0,72,72,72,1,0.882,0.2,False,None,T01,r1,2021-04-23_13h00.15.944,subsecond_timing_v2,2021.1.2,Win32,60.62443165
space,0.770175,space,0.775515,,,ms_small,0,73,73,73,1,0.918,0.3,False,None,T01,r1,2021-04-23_13h00.15.944,subsecond_timing_v2,2021.1.2,Win32,60.62443165
space,0.78387,space,0.788545,,,ms_small,0,74,74,74,1,0.988,0.2,False,None,T01,r1,2021-04-23_13h00.15.944,subsecond_timing_v2,2021.1.2,Win32,60.62443165
space,0.7844,space,0.917825,,,ms_small,0,75,75,75,1,0.67,0.1,False,None,T01,r1,2021-04-23_13h00.15.944,subsecond_timing_v2,2021.1.2,Win32,60.62443165
space,0.86572,space,0.81229,,,ms_small,0,76,76,76,1,0.776,0.3,False,None,T01,r1,2021-04-23_13h00.15.944,subsecond_timing_v2,2021.1.2,Win32,60.62443165
space,1.0003,space,0.71769,,,ms_small,0,77,77,77,1,0.847,0.2,False,None,T01,r1,2021-04-23_13h00.15.944,subsecond_timing_v2,2021.1.2,Win32,60.62443165
space,0.714945,space,0.80957,,,ms_small,0,78,78,78,1,1.024,0.2,False,None,T01,r1,2021-04-23_13h00.15.944,subsecond_timing_v2,2021.1.2,Win32,60.62443165
space,0.758345,space,0.78782,,,ms_small,0,79,79,79,1,0.812,0.3,False,None,T01,r1,2021-04-23_13h00.15.944,subsecond_timing_v2,2021.1.2,Win32,60.62443165
space,0.792495,space,0.707955,,,ms_small,0,80,80,80,1,0.953,0.1,False,None,T01,r1,2021-04-23_13h00.15.944,subsecond_timing_v2,2021.1.2,Win32,60.62443165
space,0.788995,space,0.798415,,,ms_small,0,81,81,81,1,0.706,0.2,False,None,T01,r1,2021-04-23_13h00.15.944,subsecond_timing_v2,2021.1.2,Win32,60.62443165
space,0.85278,space,0.757405,,,ms_small,0,82,82,82,1,0.741,0.3,False,None,T01,r1,2021-04-23_13h00.15.944,subsecond_timing_v2,2021.1.2,Win32,60.62443165
space,0.78953,space,0.668755,,,ms_small,0,83,83,83,1,0.706,0.1,False,None,T01,r1,2021-04-23_13h00.15.944,subsecond_timing_v2,2021.1.2,Win32,60.62443165
space,0.76701,space,0.767935,,,ms_small,0,84,84,84,1,0.812,0.2,False,None,T01,r1,2021-04-23_13h00.15.944,subsecond_timing_v2,2021.1.2,Win32,60.62443165
space,0.835085,space,0.75156,,,ms_small,0,85,85,85,1,0.882,0.2,False,None,T01,r1,2021-04-23_13h00.15.944,subsecond_timing_v2,2021.1.2,Win32,60.62443165
space,0.831545,space,0.72734,,,ms_small,0,86,86,86,1,0.776,0.1,False,None,T01,r1,2021-04-23_13h00.15.944,subsecond_timing_v2,2021.1.2,Win32,60.62443165
space,0.790225,space,0.701255,,,ms_small,0,87,87,87,1,0.988,0.3,False,None,T01,r1,2021-04-23_13h00.15.944,subsecond_timing_v2,2021.1.2,Win32,60.62443165
space,0.82069,space,0.72977,,,ms_small,0,88,88,88,1,0.67,0.2,False,None,T01,r1,2021-04-23_13h00.15.944,subsecond_timing_v2,2021.1.2,Win32,60.62443165
space,0.76808,space,0.764625,,,ms_small,0,89,89,89,1,0.741,0.3,False,None,T01,r1,2021-04-23_13h00.15.944,subsecond_timing_v2,2021.1.2,Win32,60.62443165
space,0.876065,space,0.892385,,,ms_small,0,90,90,90,1,0.918,0.1,False,None,T01,r1,2021-04-23_13h00.15.944,subsecond_timing_v2,2021.1.2,Win32,60.62443165
space,0.807235,space,0.825445,,,ms_small,0,91,91,91,1,0.847,0.3,False,None,T01,r1,2021-04-23_13h00.15.944,subsecond_timing_v2,2021.1.2,Win32,60.62443165
space,0.781925,space,0.834425,,,ms_small,0,92,92,92,1,0.953,0.2,False,None,T01,r1,2021-04-23_13h00.15.944,subsecond_timing_v2,2021.1.2,Win32,60.62443165
space,0.827545,space,0.8902,,,ms_small,0,93,93,93,1,1.024,0.2,False,None,T01,r1,2021-04-23_13h00.15.944,subsecond_timing_v2,2021.1.2,Win32,60.62443165
space,0.98889,space,0.80567,,,ms_small,0,94,94,94,1,0.882,0.1,False,None,T01,r1,2021-04-23_13h00.15.944,subsecond_timing_v2,2021.1.2,Win32,60.62443165
space,0.741335,space,0.74867,,,ms_small,0,95,95,95,1,0.67,0.2,False,None,T01,r1,2021-04-23_13h00.15.944,subsecond_timing_v2,2021.1.2,Win32,60.62443165
space,0.817975,space,0.831805,,,ms_small,0,96,96,96,1,0.918,0.3,False,None,T01,r1,2021-04-23_13h00.15.944,subsecond_timing_v2,2021.1.2,Win32,60.62443165
space,0.853045,space,0.817215,,,ms_small,0,97,97,97,1,0.706,0.2,False,None,T01,r1,2021-04-23_13h00.15.944,subsecond_timing_v2,2021.1.2,Win32,60.62443165
space,0.88873,space,0.83548,,,ms_small,0,98,98,98,1,0.988,0.1,False,None,T01,r1,2021-04-23_13h00.15.944,subsecond_timing_v2,2021.1.2,Win32,60.62443165
space,0.9022,space,0.672965,,,ms_small,0,99,99,99,1,0.741,0.3,False,None,T01,r1,2021-04-23_13h00.15.944,subsecond_timing_v2,2021.1.2,Win32,60.62443165
space,0.84376,space,0.955955,,,ms_small,0,100,100,100,1,1.024,0.2,False,None,T01,r1,2021-04-23_13h00.15.944,subsecond_timing_v2,2021.1.2,Win32,60.62443165
space,0.91277,space,0.84487,,,ms_small,0,101,101,101,1,0.776,0.2,False,None,T01,r1,2021-04-23_13h00.15.944,subsecond_timing_v2,2021.1.2,Win32,60.62443165
space,0.863325,space,0.79738,,,ms_small,0,102,102,102,1,0.812,0.2,False,None,T01,r1,2021-04-23_13h00.15.944,subsecond_timing_v2,2021.1.2,Win32,60.62443165
space,0.75457,space,0.81821,,,ms_small,0,103,103,103,1,0.953,0.2,False,None,T01,r1,2021-04-23_13h00.15.944,subsecond_timing_v2,2021.1.2,Win32,60.62443165
space,0.78476,space,0.840665,,,ms_small,0,104,104,104,1,0.847,0.1,False,None,T01,r1,2021-04-23_13h00.15.944,subsecond_timing_v2,2021.1.2,Win32,60.62443165
space,0.834225,space,0.814705,,,ms_small,0,105,105,105,1,0.706,0.2,False,None,T01,r1,2021-04-23_13h00.15.944,subsecond_timing_v2,2021.1.2,Win32,60.62443165
space,0.829305,space,0.769705,,,ms_small,0,106,106,106,1,0.741,0.1,False,None,T01,r1,2021-04-23_13h00.15.944,subsecond_timing_v2,2021.1.2,Win32,60.62443165
space,0.9525,space,0.739525,,,ms_small,0,107,107,107,1,0.67,0.1,False,None,T01,r1,2021-04-23_13h00.15.944,subsecond_timing_v2,2021.1.2,Win32,60.62443165
space,0.811345,space,0.85591,,,ms_small,0,108,108,108,1,0.847,0.1,False,None,T01,r1,2021-04-23_13h00.15.944,subsecond_timing_v2,2021.1.2,Win32,60.62443165
space,0.938415,space,0.75083,,,ms_small,0,109,109,109,1,0.812,0.2,False,None,T01,r1,2021-04-23_13h00.15.944,subsecond_timing_v2,2021.1.2,Win32,60.62443165
space,0.90499,space,0.822155,,,ms_small,0,110,110,110,1,0.776,0.3,False,None,T01,r1,2021-04-23_13h00.15.944,subsecond_timing_v2,2021.1.2,Win32,60.62443165
space,0.98421,space,0.938535,,,ms_small,0,111,111,111,1,0.988,0.3,False,None,T01,r1,2021-04-23_13h00.15.944,subsecond_timing_v2,2021.1.2,Win32,60.62443165
space,0.915255,space,1.034235,,,ms_small,0,112,112,112,1,0.918,0.1,False,None,T01,r1,2021-04-23_13h00.15.944,subsecond_timing_v2,2021.1.2,Win32,60.62443165
space,0.903675,space,0.85771,,,ms_small,0,113,113,113,1,0.882,0.1,False,None,T01,r1,2021-04-23_13h00.15.944,subsecond_timing_v2,2021.1.2,Win32,60.62443165
space,0.698665,space,0.87832,,,ms_small,0,114,114,114,1,1.024,0.2,False,None,T01,r1,2021-04-23_13h00.15.944,subsecond_timing_v2,2021.1.2,Win32,60.62443165
space,0.783725,space,0.80743,,,ms_small,0,115,115,115,1,0.953,0.2,False,None,T01,r1,2021-04-23_13h00.15.944,subsecond_timing_v2,2021.1.2,Win32,60.62443165
space,0.876005,space,0.842775,,,ms_small,0,116,116,116,1,0.847,0.3,False,None,T01,r1,2021-04-23_13h00.15.944,subsecond_timing_v2,2021.1.2,Win32,60.62443165
space,0.781345,space,0.83745,,,ms_small,0,117,117,117,1,0.882,0.2,False,None,T01,r1,2021-04-23_13h00.15.944,subsecond_timing_v2,2021.1.2,Win32,60.62443165
space,0.751615,space,0.769065,,,ms_small,0,118,118,118,1,1.024,0.1,False,None,T01,r1,2021-04-23_13h00.15.944,subsecond_timing_v2,2021.1.2,Win32,60.62443165
space,0.905485,space,0.81551,,,ms_small,0,119,119,119,1,0.706,0.2,False,None,T01,r1,2021-04-23_13h00.15.944,subsecond_timing_v2,2021.1.2,Win32,60.62443165
space,0.832195,space,1.02665,,,ms_small,0,120,120,120,1,0.918,0.1,False,None,T01,r1,2021-04-23_13h00.15.944,subsecond_timing_v2,2021.1.2,Win32,60.62443165
space,0.866865,space,0.8714,,,ms_small,0,121,121,121,1,0.776,0.1,False,None,T01,r1,2021-04-23_13h00.15.944,subsecond_timing_v2,2021.1.2,Win32,60.62443165
space,0.80422,space,0.831895,,,ms_small,0,122,122,122,1,0.953,0.3,False,None,T01,r1,2021-04-23_13h00.15.944,subsecond_timing_v2,2021.1.2,Win32,60.62443165
space,0.845705,space,0.70624,,,ms_small,0,123,123,123,1,0.67,0.1,False,None,T01,r1,2021-04-23_13h00.15.944,subsecond_timing_v2,2021.1.2,Win32,60.62443165
space,0.745325,space,0.75065,,,ms_small,0,124,124,124,1,0.812,0.2,False,None,T01,r1,2021-04-23_13h00.15.944,subsecond_timing_v2,2021.1.2,Win32,60.62443165
space,0.857425,space,0.86521,,,ms_small,0,125,125,125,1,0.988,0.2,False,None,T01,r1,2021-04-23_13h00.15.944,subsecond_timing_v2,2021.1.2,Win32,60.62443165
space,0.95993,space,0.786545,,,ms_small,0,126,126,126,1,0.741,0.3,False,None,T01,r1,2021-04-23_13h00.15.944,subsecond_timing_v2,2021.1.2,Win32,60.62443165
space,0.8209,space,0.750515,,,ms_small,0,127,127,127,1,0.67,0.1,False,None,T01,r1,2021-04-23_13h00.15.944,subsecond_timing_v2,2021.1.2,Win32,60.62443165
space,0.87593,space,0.769635,,,ms_small,0,128,128,128,1,0.776,0.3,False,None,T01,r1,2021-04-23_13h00.15.944,subsecond_timing_v2,2021.1.2,Win32,60.62443165
space,0.79511,space,0.769855,,,ms_small,0,129,129,129,1,0.847,0.1,False,None,T01,r1,2021-04-23_13h00.15.944,subsecond_timing_v2,2021.1.2,Win32,60.62443165
space,0.86496,space,0.808585,,,ms_small,0,130,130,130,1,0.812,0.1,False,None,T01,r1,2021-04-23_13h00.15.944,subsecond_timing_v2,2021.1.2,Win32,60.62443165
space,0.900545,space,0.84374,,,ms_small,0,131,131,131,1,0.882,0.1,False,None,T01,r1,2021-04-23_13h00.15.944,subsecond_timing_v2,2021.1.2,Win32,60.62443165
space,0.85081,space,0.847905,,,ms_small,0,132,132,132,1,1.024,0.2,False,None,T01,r1,2021-04-23_13h00.15.944,subsecond_timing_v2,2021.1.2,Win32,60.62443165
space,1.008595,space,0.953775,,,ms_small,0,133,133,133,1,0.953,0.3,False,None,T01,r1,2021-04-23_13h00.15.944,subsecond_timing_v2,2021.1.2,Win32,60.62443165
space,0.81539,space,0.890465,,,ms_small,0,134,134,134,1,0.988,0.2,False,None,T01,r1,2021-04-23_13h00.15.944,subsecond_timing_v2,2021.1.2,Win32,60.62443165
space,0.734295,space,0.690755,,,ms_small,0,135,135,135,1,0.706,0.1,False,None,T01,r1,2021-04-23_13h00.15.944,subsecond_timing_v2,2021.1.2,Win32,60.62443165
space,0.76738,space,0.875915,,,ms_small,0,136,136,136,1,0.918,0.1,False,None,T01,r1,2021-04-23_13h00.15.944,subsecond_timing_v2,2021.1.2,Win32,60.62443165
space,0.67888,space,0.903325,,,ms_small,0,137,137,137,1,0.741,0.1,False,None,T01,r1,2021-04-23_13h00.15.944,subsecond_timing_v2,2021.1.2,Win32,60.62443165
space,0.9222,space,0.851005,,,ms_small,0,138,138,138,1,0.741,0.3,False,None,T01,r1,2021-04-23_13h00.15.944,subsecond_timing_v2,2021.1.2,Win32,60.62443165
space,0.884365,space,0.90772,,,ms_small,0,139,139,139,1,0.988,0.2,False,None,T01,r1,2021-04-23_13h00.15.944,subsecond_timing_v2,2021.1.2,Win32,60.62443165
space,0.85243,space,0.838675,,,ms_small,0,140,140,140,1,0.812,0.3,False,None,T01,r1,2021-04-23_13h00.15.944,subsecond_timing_v2,2021.1.2,Win32,60.62443165
space,0.768475,space,0.91273,,,ms_small,0,141,141,141,1,0.918,0.2,False,None,T01,r1,2021-04-23_13h00.15.944,subsecond_timing_v2,2021.1.2,Win32,60.62443165
space,0.953335,space,0.925695,,,ms_small,0,142,142,142,1,0.847,0.2,False,None,T01,r1,2021-04-23_13h00.15.944,subsecond_timing_v2,2021.1.2,Win32,60.62443165
space,0.79256,space,0.835055,,,ms_small,0,143,143,143,1,0.953,0.1,False,None,T01,r1,2021-04-23_13h00.15.944,subsecond_timing_v2,2021.1.2,Win32,60.62443165
space,0.855395,space,0.870495,,,ms_small,0,144,144,144,1,0.776,0.3,False,None,T01,r1,2021-04-23_13h00.15.944,subsecond_timing_v2,2021.1.2,Win32,60.62443165
space,0.868395,space,0.76843,,,ms_small,0,145,145,145,1,0.706,0.3,False,None,T01,r1,2021-04-23_13h00.15.944,subsecond_timing_v2,2021.1.2,Win32,60.62443165
space,0.854715,space,0.93367,,,ms_small,0,146,146,146,1,1.024,0.1,False,None,T01,r1,2021-04-23_13h00.15.944,subsecond_timing_v2,2021.1.2,Win32,60.62443165
space,0.917015,space,0.788365,,,ms_small,0,147,147,147,1,0.882,0.2,False,None,T01,r1,2021-04-23_13h00.15.944,subsecond_timing_v2,2021.1.2,Win32,60.62443165
space,0.88712,space,0.929715,,,ms_small,0,148,148,148,1,0.67,0.3,False,None,T01,r1,2021-04-23_13h00.15.944,subsecond_timing_v2,2021.1.2,Win32,60.62443165
space,0.76367,space,0.76933,,,ms_small,0,149,149,149,1,0.67,0.3,False,None,T01,r1,2021-04-23_13h00.15.944,subsecond_timing_v2,2021.1.2,Win32,60.62443165
space,0.83549,space,0.801115,,,ms_small,0,150,150,150,1,0.741,0.3,False,None,T01,r1,2021-04-23_13h00.15.944,subsecond_timing_v2,2021.1.2,Win32,60.62443165
space,0.93529,space,0.756595,,,ms_small,0,151,151,151,1,0.918,0.1,False,None,T01,r1,2021-04-23_13h00.15.944,subsecond_timing_v2,2021.1.2,Win32,60.62443165
space,0.900755,space,0.668015,,,ms_small,0,152,152,152,1,0.706,0.3,False,None,T01,r1,2021-04-23_13h00.15.944,subsecond_timing_v2,2021.1.2,Win32,60.62443165
space,0.83502,space,0.871895,,,ms_small,0,153,153,153,1,0.988,0.2,False,None,T01,r1,2021-04-23_13h00.15.944,subsecond_timing_v2,2021.1.2,Win32,60.62443165
space,0.843125,space,0.83972,,,ms_small,0,154,154,154,1,0.847,0.2,False,None,T01,r1,2021-04-23_13h00.15.944,subsecond_timing_v2,2021.1.2,Win32,60.62443165
space,0.791945,space,0.79608,,,ms_small,0,155,155,155,1,0.776,0.3,False,None,T01,r1,2021-04-23_13h00.15.944,subsecond_timing_v2,2021.1.2,Win32,60.62443165
space,0.81483,space,0.729455,,,ms_small,0,156,156,156,1,0.882,0.2,False,None,T01,r1,2021-04-23_13h00.15.944,subsecond_timing_v2,2021.1.2,Win32,60.62443165
space,0.903185,space,0.81741,,,ms_small,0,157,157,157,1,0.812,0.1,False,None,T01,r1,2021-04-23_13h00.15.944,subsecond_timing_v2,2021.1.2,Win32,60.62443165
space,0.883645,space,0.7688,,,ms_small,0,158,158,158,1,1.024,0.1,False,None,T01,r1,2021-04-23_13h00.15.944,subsecond_timing_v2,2021.1.2,Win32,60.62443165
space,0.790095,space,0.920435,,,ms_small,0,159,159,159,1,0.953,0.2,False,None,T01,r1,2021-04-23_13h00.15.944,subsecond_timing_v2,2021.1.2,Win32,60.62443165
space,0.775225,space,0.81057,,,ms_small,0,160,160,160,1,0.812,0.2,False,None,T01,r1,2021-04-23_13h00.15.944,subsecond_timing_v2,2021.1.2,Win32,60.62443165
space,0.873485,space,0.652175,,,ms_small,0,161,161,161,1,0.67,0.1,False,None,T01,r1,2021-04-23_13h00.15.944,subsecond_timing_v2,2021.1.2,Win32,60.62443165
space,0.80927,space,0.800275,,,ms_small,0,162,162,162,1,0.953,0.1,False,None,T01,r1,2021-04-23_13h00.15.944,subsecond_timing_v2,2021.1.2,Win32,60.62443165
space,0.75541,space,0.76748,,,ms_small,0,163,163,163,1,0.882,0.3,False,None,T01,r1,2021-04-23_13h00.15.944,subsecond_timing_v2,2021.1.2,Win32,60.62443165
space,0.747965,space,0.800855,,,ms_small,0,164,164,164,1,0.988,0.1,False,None,T01,r1,2021-04-23_13h00.15.944,subsecond_timing_v2,2021.1.2,Win32,60.62443165
space,1.327925,space,0.54674,,,ms_small,0,165,165,165,1,0.706,0.1,False,None,T01,r1,2021-04-23_13h00.15.944,subsecond_timing_v2,2021.1.2,Win32,60.62443165
space,0.72015,space,0.86932,,,ms_small,0,166,166,166,1,1.024,0.3,False,None,T01,r1,2021-04-23_13h00.15.944,subsecond_timing_v2,2021.1.2,Win32,60.62443165
space,0.944315,space,0.93951,,,ms_small,0,167,167,167,1,0.847,0.3,False,None,T01,r1,2021-04-23_13h00.15.944,subsecond_timing_v2,2021.1.2,Win32,60.62443165
space,0.842255,space,0.93438,,,ms_small,0,168,168,168,1,0.741,0.3,False,None,T01,r1,2021-04-23_13h00.15.944,subsecond_timing_v2,2021.1.2,Win32,60.62443165
space,1.21231,space,0.80558,,,ms_small,0,169,169,169,1,0.918,0.2,False,None,T01,r1,2021-04-23_13h00.15.944,subsecond_timing_v2,2021.1.2,Win32,60.62443165
space,1.02625,space,0.85046,,,ms_small,0,170,170,170,1,0.776,0.1,False,None,T01,r1,2021-04-23_13h00.15.944,subsecond_timing_v2,2021.1.2,Win32,60.62443165
space,0.830315,space,0.86701,,,ms_small,0,171,171,171,1,0.882,0.3,False,None,T01,r1,2021-04-23_13h00.15.944,subsecond_timing_v2,2021.1.2,Win32,60.62443165
space,0.97929,space,0.845075,,,ms_small,0,172,172,172,1,0.741,0.1,False,None,T01,r1,2021-04-23_13h00.15.944,subsecond_timing_v2,2021.1.2,Win32,60.62443165
space,0.87351,space,0.744885,,,ms_small,0,173,173,173,1,0.988,0.1,False,None,T01,r1,2021-04-23_13h00.15.944,subsecond_timing_v2,2021.1.2,Win32,60.62443165
space,1.02962,space,0.76764,,,ms_small,0,174,174,174,1,0.706,0.2,False,None,T01,r1,2021-04-23_13h00.15.944,subsecond_timing_v2,2021.1.2,Win32,60.62443165
space,0.859425,space,0.706575,,,ms_small,0,175,175,175,1,0.918,0.2,False,None,T01,r1,2021-04-23_13h00.15.944,subsecond_timing_v2,2021.1.2,Win32,60.62443165
space,0.867395,space,0.72842,,,ms_small,0,176,176,176,1,0.953,0.2,False,None,T01,r1,2021-04-23_13h00.15.944,subsecond_timing_v2,2021.1.2,Win32,60.62443165
space,0.937745,space,0.8047,,,ms_small,0,177,177,177,1,0.67,0.2,False,None,T01,r1,2021-04-23_13h00.15.944,subsecond_timing_v2,2021.1.2,Win32,60.62443165
space,0.85501,space,0.77534,,,ms_small,0,178,178,178,1,0.847,0.3,False,None,T01,r1,2021-04-23_13h00.15.944,subsecond_timing_v2,2021.1.2,Win32,60.62443165
space,0.83442,space,0.6856,,,ms_small,0,179,179,179,1,0.776,0.1,False,None,T01,r1,2021-04-23_13h00.15.944,subsecond_timing_v2,2021.1.2,Win32,60.62443165
space,0.95054,space,0.86882,,,ms_small,0,180,180,180,1,0.812,0.1,False,None,T01,r1,2021-04-23_13h00.15.944,subsecond_timing_v2,2021.1.2,Win32,60.62443165
space,0.8522,space,0.800755,,,ms_small,0,181,181,181,1,1.024,0.2,False,None,T01,r1,2021-04-23_13h00.15.944,subsecond_timing_v2,2021.1.2,Win32,60.62443165
space,0.801385,space,0.65358,,,ms_small,0,182,182,182,1,0.706,0.3,False,None,T01,r1,2021-04-23_13h00.15.944,subsecond_timing_v2,2021.1.2,Win32,60.62443165
space,0.919095,space,1.093445,,,ms_small,0,183,183,183,1,0.988,0.1,False,None,T01,r1,2021-04-23_13h00.15.944,subsecond_timing_v2,2021.1.2,Win32,60.62443165
space,0.95721,space,1.051125,,,ms_small,0,184,184,184,1,1.024,0.3,False,None,T01,r1,2021-04-23_13h00.15.944,subsecond_timing_v2,2021.1.2,Win32,60.62443165
space,0.966715,space,0.95802,,,ms_small,0,185,185,185,1,0.847,0.1,False,None,T01,r1,2021-04-23_13h00.15.944,subsecond_timing_v2,2021.1.2,Win32,60.62443165
space,1.064765,space,0.827475,,,ms_small,0,186,186,186,1,0.741,0.1,False,None,T01,r1,2021-04-23_13h00.15.944,subsecond_timing_v2,2021.1.2,Win32,60.62443165
space,1.016835,space,0.81174,,,ms_small,0,187,187,187,1,0.776,0.3,False,None,T01,r1,2021-04-23_13h00.15.944,subsecond_timing_v2,2021.1.2,Win32,60.62443165
space,0.894525,space,0.900705,,,ms_small,0,188,188,188,1,0.812,0.3,False,None,T01,r1,2021-04-23_13h00.15.944,subsecond_timing_v2,2021.1.2,Win32,60.62443165
space,0.96377,space,0.94198,,,ms_small,0,189,189,189,1,0.918,0.3,False,None,T01,r1,2021-04-23_13h00.15.944,subsecond_timing_v2,2021.1.2,Win32,60.62443165
space,0.850245,space,0.697865,,,ms_small,0,190,190,190,1,0.67,0.1,False,None,T01,r1,2021-04-23_13h00.15.944,subsecond_timing_v2,2021.1.2,Win32,60.62443165
space,0.82577,space,0.789955,,,ms_small,0,191,191,191,1,0.882,0.2,False,None,T01,r1,2021-04-23_13h00.15.944,subsecond_timing_v2,2021.1.2,Win32,60.62443165
space,0.81318,space,0.828265,,,ms_small,0,192,192,192,1,0.953,0.1,False,None,T01,r1,2021-04-23_13h00.15.944,subsecond_timing_v2,2021.1.2,Win32,60.62443165
space,0.800555,space,0.709455,,,ms_small,0,193,193,193,1,0.776,0.1,False,None,T01,r1,2021-04-23_13h00.15.944,subsecond_timing_v2,2021.1.2,Win32,60.62443165
space,0.88442,space,0.91738,,,ms_small,0,194,194,194,1,0.988,0.3,False,None,T01,r1,2021-04-23_13h00.15.944,subsecond_timing_v2,2021.1.2,Win32,60.62443165
space,0.80041,space,0.755285,,,ms_small,0,195,195,195,1,0.953,0.1,False,None,T01,r1,2021-04-23_13h00.15.944,subsecond_timing_v2,2021.1.2,Win32,60.62443165
space,0.89067,space,0.75776,,,ms_small,0,196,196,196,1,0.741,0.3,False,None,T01,r1,2021-04-23_13h00.15.944,subsecond_timing_v2,2021.1.2,Win32,60.62443165
space,0.784315,space,0.836275,,,ms_small,0,197,197,197,1,0.67,0.3,False,None,T01,r1,2021-04-23_13h00.15.944,subsecond_timing_v2,2021.1.2,Win32,60.62443165
space,0.824035,space,0.85678,,,ms_small,0,198,198,198,1,0.847,0.3,False,None,T01,r1,2021-04-23_13h00.15.944,subsecond_timing_v2,2021.1.2,Win32,60.62443165
space,0.8342,space,0.818315,,,ms_small,0,199,199,199,1,0.882,0.2,False,None,T01,r1,2021-04-23_13h00.15.944,subsecond_timing_v2,2021.1.2,Win32,60.62443165
space,0.79705,space,0.67328,,,ms_small,0,200,200,200,1,0.706,0.3,False,None,T01,r1,2021-04-23_13h00.15.944,subsecond_timing_v2,2021.1.2,Win32,60.62443165
space,0.785205,space,0.721125,,,ms_small,0,201,201,201,1,0.812,0.1,False,None,T01,r1,2021-04-23_13h00.15.944,subsecond_timing_v2,2021.1.2,Win32,60.62443165
space,0.789265,space,0.85074,,,ms_small,0,202,202,202,1,1.024,0.2,False,None,T01,r1,2021-04-23_13h00.15.944,subsecond_timing_v2,2021.1.2,Win32,60.62443165
space,0.7966,space,0.87682,,,ms_small,0,203,203,203,1,0.918,0.1,False,None,T01,r1,2021-04-23_13h00.15.944,subsecond_timing_v2,2021.1.2,Win32,60.62443165
space,0.945545,space,0.852485,,,ms_small,0,204,204,204,1,0.776,0.2,False,None,T01,r1,2021-04-23_13h00.15.944,subsecond_timing_v2,2021.1.2,Win32,60.62443165
space,0.800425,space,0.690875,,,ms_small,0,205,205,205,1,0.67,0.1,False,None,T01,r1,2021-04-23_13h00.15.944,subsecond_timing_v2,2021.1.2,Win32,60.62443165
space,0.94351,space,0.8849,,,ms_small,0,206,206,206,1,0.706,0.3,False,None,T01,r1,2021-04-23_13h00.15.944,subsecond_timing_v2,2021.1.2,Win32,60.62443165
space,0.73762,space,0.83904,,,ms_small,0,207,207,207,1,0.988,0.2,False,None,T01,r1,2021-04-23_13h00.15.944,subsecond_timing_v2,2021.1.2,Win32,60.62443165
space,1.16261,space,0.7727,,,ms_small,0,208,208,208,1,0.847,0.3,False,None,T01,r1,2021-04-23_13h00.15.944,subsecond_timing_v2,2021.1.2,Win32,60.62443165
space,1.02552,space,0.90723,,,ms_small,0,209,209,209,1,0.953,0.2,False,None,T01,r1,2021-04-23_13h00.15.944,subsecond_timing_v2,2021.1.2,Win32,60.62443165
space,0.772445,space,0.852005,,,ms_small,0,210,210,210,1,0.812,0.1,False,None,T01,r1,2021-04-23_13h00.15.944,subsecond_timing_v2,2021.1.2,Win32,60.62443165
space,1.032515,space,0.75176,,,ms_small,0,211,211,211,1,0.918,0.1,False,None,T01,r1,2021-04-23_13h00.15.944,subsecond_timing_v2,2021.1.2,Win32,60.62443165
space,0.917625,space,0.86861,,,ms_small,0,212,212,212,1,0.741,0.3,False,None,T01,r1,2021-04-23_13h00.15.944,subsecond_timing_v2,2021.1.2,Win32,60.62443165
space,0.7809,space,0.794535,,,ms_small,0,213,213,213,1,0.882,0.3,False,None,T01,r1,2021-04-23_13h00.15.944,subsecond_timing_v2,2021.1.2,Win32,60.62443165
space,0.85117,space,0.8677,,,ms_small,0,214,214,214,1,1.024,0.1,False,None,T01,r1,2021-04-23_13h00.15.944,subsecond_timing_v2,2021.1.2,Win32,60.62443165
space,0.93743,space,0.817445,,,ms_small,0,215,215,215,1,1.024,0.2,False,None,T01,r1,2021-04-23_13h00.15.944,subsecond_timing_v2,2021.1.2,Win32,60.62443165
space,0.98805,space,0.754855,,,ms_small,0,216,216,216,1,0.706,0.2,False,None,T01,r1,2021-04-23_13h00.15.944,subsecond_timing_v2,2021.1.2,Win32,60.62443165
space,0.866925,space,0.897685,,,ms_small,0,217,217,217,1,0.882,0.1,False,None,T01,r1,2021-04-23_13h00.15.944,subsecond_timing_v2,2021.1.2,Win32,60.62443165
space,0.914365,space,0.885045,,,ms_small,0,218,218,218,1,0.776,0.2,False,None,T01,r1,2021-04-23_13h00.15.944,subsecond_timing_v2,2021.1.2,Win32,60.62443165
space,0.917755,space,0.745665,,,ms_small,0,219,219,219,1,0.847,0.2,False,None,T01,r1,2021-04-23_13h00.15.944,subsecond_timing_v2,2021.1.2,Win32,60.62443165
space,0.800745,space,0.813705,,,ms_small,0,220,220,220,1,0.812,0.1,False,None,T01,r1,2021-04-23_13h00.15.944,subsecond_timing_v2,2021.1.2,Win32,60.62443165
space,0.833705,space,0.850715,,,ms_small,0,221,221,221,1,0.988,0.1,False,None,T01,r1,2021-04-23_13h00.15.944,subsecond_timing_v2,2021.1.2,Win32,60.62443165
space,0.90064,space,0.828915,,,ms_small,0,222,222,222,1,0.918,0.1,False,None,T01,r1,2021-04-23_13h00.15.944,subsecond_timing_v2,2021.1.2,Win32,60.62443165
space,0.985035,space,0.801805,,,ms_small,0,223,223,223,1,0.67,0.2,False,None,T01,r1,2021-04-23_13h00.15.944,subsecond_timing_v2,2021.1.2,Win32,60.62443165
space,0.84613,space,0.83345,,,ms_small,0,224,224,224,1,0.741,0.3,False,None,T01,r1,2021-04-23_13h00.15.944,subsecond_timing_v2,2021.1.2,Win32,60.62443165
space,0.93425,space,0.836085,,,ms_small,0,225,225,225,1,0.953,0.1,False,None,T01,r1,2021-04-23_13h00.15.944,subsecond_timing_v2,2021.1.2,Win32,60.62443165
