key_resp_start.keys,key_resp_start.rt,key_resp_stop.keys,key_resp_stop.rt,feedback_range,hit,stimulus_range,trials.thisRepN,trials.thisTrialN,trials.thisN,trials.thisIndex,trials.ran,stimulus_duration,onset,feedback,feedback_range_fromfile,participant,session,date,expName,psychopyVersion,OS,frameRate
space,2.087665,space,2.10048,0.3,TRUE,Training,0,0,0,0,1,2,0.1,True,0.3,Z01,r3,2021-04-23_20h20.27.590,subsecond_timing_v2,2021.1.2,Win32,59.89099838
space,1.19324,space,2.742685,0.3,FALSE,Training,0,1,1,1,1,5,0.2,True,0.3,Z01,r3,2021-04-23_20h20.27.590,subsecond_timing_v2,2021.1.2,Win32,59.89099838
space,1.10263,space,4.091725,0.3,TRUE,Training,0,2,2,2,1,4,0.1,True,0.3,Z01,r3,2021-04-23_20h20.27.590,subsecond_timing_v2,2021.1.2,Win32,59.89099838
space,0.95198,space,4.588035,,,large,0,3,3,3,1,4.5,0.3,False,None,Z01,r3,2021-04-23_20h20.27.590,subsecond_timing_v2,2021.1.2,Win32,59.89099838
space,1.269185,space,3.5621,,,large,0,4,4,4,1,3.5,0.3,False,None,Z01,r3,2021-04-23_20h20.27.590,subsecond_timing_v2,2021.1.2,Win32,59.89099838
space,0.9356,space,5.43645,,,large,0,5,5,5,1,5.5,0.3,False,None,Z01,r3,2021-04-23_20h20.27.590,subsecond_timing_v2,2021.1.2,Win32,59.89099838
space,0.73623,space,2.883605,,,large,0,6,6,6,1,3,0.1,False,None,Z01,r3,2021-04-23_20h20.27.590,subsecond_timing_v2,2021.1.2,Win32,59.89099838
space,0.774485,space,2.725425,,,large,0,7,7,7,1,2.5,0.1,False,None,Z01,r3,2021-04-23_20h20.27.590,subsecond_timing_v2,2021.1.2,Win32,59.89099838
space,0.690705,space,4.70153,,,large,0,8,8,8,1,5,0.3,False,None,Z01,r3,2021-04-23_20h20.27.590,subsecond_timing_v2,2021.1.2,Win32,59.89099838
space,0.829115,space,6.635215,,,large,0,9,9,9,1,6,0.3,False,None,Z01,r3,2021-04-23_20h20.27.590,subsecond_timing_v2,2021.1.2,Win32,59.89099838
space,0.67895,space,1.968995,,,large,0,10,10,10,1,2,0.2,False,None,Z01,r3,2021-04-23_20h20.27.590,subsecond_timing_v2,2021.1.2,Win32,59.89099838
space,0.71456,space,3.635175,,,large,0,11,11,11,1,4,0.1,False,None,Z01,r3,2021-04-23_20h20.27.590,subsecond_timing_v2,2021.1.2,Win32,59.89099838
space,0.63675,space,2.42218,,,large,0,12,12,12,1,2.5,0.3,False,None,Z01,r3,2021-04-23_20h20.27.590,subsecond_timing_v2,2021.1.2,Win32,59.89099838
space,0.668695,space,3.650675,,,large,0,13,13,13,1,4,0.1,False,None,Z01,r3,2021-04-23_20h20.27.590,subsecond_timing_v2,2021.1.2,Win32,59.89099838
space,0.7684,space,3.82275,,,large,0,14,14,14,1,3.5,0.3,False,None,Z01,r3,2021-04-23_20h20.27.590,subsecond_timing_v2,2021.1.2,Win32,59.89099838
space,0.679545,space,5.017335,,,large,0,15,15,15,1,5.5,0.1,False,None,Z01,r3,2021-04-23_20h20.27.590,subsecond_timing_v2,2021.1.2,Win32,59.89099838
space,0.61369,space,6.39334,,,large,0,16,16,16,1,6,0.1,False,None,Z01,r3,2021-04-23_20h20.27.590,subsecond_timing_v2,2021.1.2,Win32,59.89099838
space,0.76779,space,2.768085,,,large,0,17,17,17,1,3,0.2,False,None,Z01,r3,2021-04-23_20h20.27.590,subsecond_timing_v2,2021.1.2,Win32,59.89099838
space,0.754195,space,2.212065,,,large,0,18,18,18,1,2,0.2,False,None,Z01,r3,2021-04-23_20h20.27.590,subsecond_timing_v2,2021.1.2,Win32,59.89099838
space,0.652165,space,5.03946,,,large,0,19,19,19,1,5,0.2,False,None,Z01,r3,2021-04-23_20h20.27.590,subsecond_timing_v2,2021.1.2,Win32,59.89099838
space,0.31884,space,5.127855,,,large,0,20,20,20,1,4.5,0.3,False,None,Z01,r3,2021-04-23_20h20.27.590,subsecond_timing_v2,2021.1.2,Win32,59.89099838
space,0.71122,space,3.554895,,,large,0,21,21,21,1,3.5,0.2,False,None,Z01,r3,2021-04-23_20h20.27.590,subsecond_timing_v2,2021.1.2,Win32,59.89099838
space,0.671605,space,2.90446,,,large,0,22,22,22,1,3,0.2,False,None,Z01,r3,2021-04-23_20h20.27.590,subsecond_timing_v2,2021.1.2,Win32,59.89099838
space,0.58024,space,4.9194,,,large,0,23,23,23,1,5.5,0.1,False,None,Z01,r3,2021-04-23_20h20.27.590,subsecond_timing_v2,2021.1.2,Win32,59.89099838
space,0.912455,space,2.30252,,,large,0,24,24,24,1,2,0.1,False,None,Z01,r3,2021-04-23_20h20.27.590,subsecond_timing_v2,2021.1.2,Win32,59.89099838
space,0.89285,space,6.354155,,,large,0,25,25,25,1,6,0.3,False,None,Z01,r3,2021-04-23_20h20.27.590,subsecond_timing_v2,2021.1.2,Win32,59.89099838
space,0.66077,space,2.437875,,,large,0,26,26,26,1,2.5,0.1,False,None,Z01,r3,2021-04-23_20h20.27.590,subsecond_timing_v2,2021.1.2,Win32,59.89099838
space,0.83621,space,3.702005,,,large,0,27,27,27,1,4,0.2,False,None,Z01,r3,2021-04-23_20h20.27.590,subsecond_timing_v2,2021.1.2,Win32,59.89099838
space,0.706015,space,4.50543,,,large,0,28,28,28,1,4.5,0.3,False,None,Z01,r3,2021-04-23_20h20.27.590,subsecond_timing_v2,2021.1.2,Win32,59.89099838
space,1.009885,space,4.95947,,,large,0,29,29,29,1,5,0.1,False,None,Z01,r3,2021-04-23_20h20.27.590,subsecond_timing_v2,2021.1.2,Win32,59.89099838
space,0.63656,space,2.36599,,,large,0,30,30,30,1,2.5,0.3,False,None,Z01,r3,2021-04-23_20h20.27.590,subsecond_timing_v2,2021.1.2,Win32,59.89099838
space,0.711235,space,5.530815,,,large,0,31,31,31,1,6,0.1,False,None,Z01,r3,2021-04-23_20h20.27.590,subsecond_timing_v2,2021.1.2,Win32,59.89099838
space,0.64328,space,5.15543,,,large,0,32,32,32,1,5,0.3,False,None,Z01,r3,2021-04-23_20h20.27.590,subsecond_timing_v2,2021.1.2,Win32,59.89099838
space,0.82824,space,3.68722,,,large,0,33,33,33,1,3.5,0.1,False,None,Z01,r3,2021-04-23_20h20.27.590,subsecond_timing_v2,2021.1.2,Win32,59.89099838
space,0.77145,space,2.920195,,,large,0,34,34,34,1,3,0.1,False,None,Z01,r3,2021-04-23_20h20.27.590,subsecond_timing_v2,2021.1.2,Win32,59.89099838
space,0.60242,space,5.417155,,,large,0,35,35,35,1,5.5,0.2,False,None,Z01,r3,2021-04-23_20h20.27.590,subsecond_timing_v2,2021.1.2,Win32,59.89099838
space,0.86933,space,2.10284,,,large,0,36,36,36,1,2,0.2,False,None,Z01,r3,2021-04-23_20h20.27.590,subsecond_timing_v2,2021.1.2,Win32,59.89099838
space,0.59474,space,3.64741,,,large,0,37,37,37,1,4,0.2,False,None,Z01,r3,2021-04-23_20h20.27.590,subsecond_timing_v2,2021.1.2,Win32,59.89099838
space,0.60217,space,5.42767,,,large,0,38,38,38,1,4.5,0.2,False,None,Z01,r3,2021-04-23_20h20.27.590,subsecond_timing_v2,2021.1.2,Win32,59.89099838
space,0.92977,space,2.70157,,,large,0,40,40,40,1,3,0.3,False,None,Z01,r3,2021-04-23_20h20.27.590,subsecond_timing_v2,2021.1.2,Win32,59.89099838
space,0.709325,space,4.024905,,,large,0,41,41,41,1,4.5,0.1,False,None,Z01,r3,2021-04-23_20h20.27.590,subsecond_timing_v2,2021.1.2,Win32,59.89099838
space,0.702675,space,4.603345,,,large,0,42,42,42,1,5,0.2,False,None,Z01,r3,2021-04-23_20h20.27.590,subsecond_timing_v2,2021.1.2,Win32,59.89099838
space,0.88641,space,2.01893,,,large,0,43,43,43,1,2,0.2,False,None,Z01,r3,2021-04-23_20h20.27.590,subsecond_timing_v2,2021.1.2,Win32,59.89099838
space,0.75379,space,5.95517,,,large,0,44,44,44,1,6,0.1,False,None,Z01,r3,2021-04-23_20h20.27.590,subsecond_timing_v2,2021.1.2,Win32,59.89099838
space,0.722535,space,5.20384,,,large,0,45,45,45,1,5.5,0.3,False,None,Z01,r3,2021-04-23_20h20.27.590,subsecond_timing_v2,2021.1.2,Win32,59.89099838
space,0.70587,space,2.490085,,,large,0,46,46,46,1,2.5,0.1,False,None,Z01,r3,2021-04-23_20h20.27.590,subsecond_timing_v2,2021.1.2,Win32,59.89099838
space,0.889145,space,3.356925,,,large,0,47,47,47,1,3.5,0.2,False,None,Z01,r3,2021-04-23_20h20.27.590,subsecond_timing_v2,2021.1.2,Win32,59.89099838
space,0.688205,space,3.65233,,,large,0,48,48,48,1,4,0.1,False,None,Z01,r3,2021-04-23_20h20.27.590,subsecond_timing_v2,2021.1.2,Win32,59.89099838
space,0.95697,space,5.71943,,,large,0,49,49,49,1,6,0.3,False,None,Z01,r3,2021-04-23_20h20.27.590,subsecond_timing_v2,2021.1.2,Win32,59.89099838
space,0.834195,space,1.83742,,,large,0,50,50,50,1,2,0.3,False,None,Z01,r3,2021-04-23_20h20.27.590,subsecond_timing_v2,2021.1.2,Win32,59.89099838
space,0.72434,space,4.39208,,,large,0,51,51,51,1,4.5,0.1,False,None,Z01,r3,2021-04-23_20h20.27.590,subsecond_timing_v2,2021.1.2,Win32,59.89099838
space,0.761625,space,5.325865,,,large,0,52,52,52,1,5.5,0.3,False,None,Z01,r3,2021-04-23_20h20.27.590,subsecond_timing_v2,2021.1.2,Win32,59.89099838
space,0.65305,space,1.984055,,,large,0,53,53,53,1,2.5,0.2,False,None,Z01,r3,2021-04-23_20h20.27.590,subsecond_timing_v2,2021.1.2,Win32,59.89099838
space,0.647315,space,3.52539,,,large,0,54,54,54,1,3.5,0.2,False,None,Z01,r3,2021-04-23_20h20.27.590,subsecond_timing_v2,2021.1.2,Win32,59.89099838
space,0.7398,space,3.63313,,,large,0,55,55,55,1,3,0.3,False,None,Z01,r3,2021-04-23_20h20.27.590,subsecond_timing_v2,2021.1.2,Win32,59.89099838
space,0.568815,space,4.288785,,,large,0,56,56,56,1,5,0.3,False,None,Z01,r3,2021-04-23_20h20.27.590,subsecond_timing_v2,2021.1.2,Win32,59.89099838
space,0.74355,space,2.225365,,,large,0,57,57,57,1,2,0.3,False,None,Z01,r3,2021-04-23_20h20.27.590,subsecond_timing_v2,2021.1.2,Win32,59.89099838
space,0.4748,space,4.118205,,,large,0,58,58,58,1,4,0.2,False,None,Z01,r3,2021-04-23_20h20.27.590,subsecond_timing_v2,2021.1.2,Win32,59.89099838
space,0.670575,space,5.418995,,,large,0,59,59,59,1,6,0.1,False,None,Z01,r3,2021-04-23_20h20.27.590,subsecond_timing_v2,2021.1.2,Win32,59.89099838
space,0.752715,space,5.79055,,,large,0,60,60,60,1,5.5,0.2,False,None,Z01,r3,2021-04-23_20h20.27.590,subsecond_timing_v2,2021.1.2,Win32,59.89099838
space,0.919505,space,3.5283,,,large,0,61,61,61,1,3.5,0.2,False,None,Z01,r3,2021-04-23_20h20.27.590,subsecond_timing_v2,2021.1.2,Win32,59.89099838
space,0.597865,space,4.94423,,,large,0,62,62,62,1,5,0.2,False,None,Z01,r3,2021-04-23_20h20.27.590,subsecond_timing_v2,2021.1.2,Win32,59.89099838
space,0.635835,space,2.22046,,,large,0,63,63,63,1,2.5,0.3,False,None,Z01,r3,2021-04-23_20h20.27.590,subsecond_timing_v2,2021.1.2,Win32,59.89099838
space,0.64592,space,3.518125,,,large,0,64,64,64,1,3,0.1,False,None,Z01,r3,2021-04-23_20h20.27.590,subsecond_timing_v2,2021.1.2,Win32,59.89099838
space,0.519885,space,4.23435,,,large,0,65,65,65,1,4.5,0.3,False,None,Z01,r3,2021-04-23_20h20.27.590,subsecond_timing_v2,2021.1.2,Win32,59.89099838
space,0.62454,space,5.491425,,,large,0,66,66,66,1,5.5,0.3,False,None,Z01,r3,2021-04-23_20h20.27.590,subsecond_timing_v2,2021.1.2,Win32,59.89099838
space,1.04722,space,5.152345,,,large,0,67,67,67,1,5,0.3,False,None,Z01,r3,2021-04-23_20h20.27.590,subsecond_timing_v2,2021.1.2,Win32,59.89099838
space,0.934605,space,3.47824,,,large,0,68,68,68,1,3,0.2,False,None,Z01,r3,2021-04-23_20h20.27.590,subsecond_timing_v2,2021.1.2,Win32,59.89099838
space,1.76776,space,2.641675,,,large,0,69,69,69,1,2.5,0.3,False,None,Z01,r3,2021-04-23_20h20.27.590,subsecond_timing_v2,2021.1.2,Win32,59.89099838
space,0.82792,space,5.9429,,,large,0,70,70,70,1,6,0.1,False,None,Z01,r3,2021-04-23_20h20.27.590,subsecond_timing_v2,2021.1.2,Win32,59.89099838
space,0.773345,space,3.70107,,,large,0,71,71,71,1,4,0.1,False,None,Z01,r3,2021-04-23_20h20.27.590,subsecond_timing_v2,2021.1.2,Win32,59.89099838
space,0.8849,space,1.82931,,,large,0,72,72,72,1,2,0.1,False,None,Z01,r3,2021-04-23_20h20.27.590,subsecond_timing_v2,2021.1.2,Win32,59.89099838
space,0.717205,space,3.741035,,,large,0,73,73,73,1,4.5,0.1,False,None,Z01,r3,2021-04-23_20h20.27.590,subsecond_timing_v2,2021.1.2,Win32,59.89099838
space,0.80615,space,3.44107,,,large,0,74,74,74,1,3.5,0.3,False,None,Z01,r3,2021-04-23_20h20.27.590,subsecond_timing_v2,2021.1.2,Win32,59.89099838
space,0.574805,space,5.257955,,,large,0,75,75,75,1,5.5,0.1,False,None,Z01,r3,2021-04-23_20h20.27.590,subsecond_timing_v2,2021.1.2,Win32,59.89099838
space,0.702445,space,6.234085,,,large,0,76,76,76,1,6,0.2,False,None,Z01,r3,2021-04-23_20h20.27.590,subsecond_timing_v2,2021.1.2,Win32,59.89099838
space,0.683285,space,2.35697,,,large,0,77,77,77,1,2.5,0.1,False,None,Z01,r3,2021-04-23_20h20.27.590,subsecond_timing_v2,2021.1.2,Win32,59.89099838
space,0.719225,space,4.920965,,,large,0,78,78,78,1,5,0.1,False,None,Z01,r3,2021-04-23_20h20.27.590,subsecond_timing_v2,2021.1.2,Win32,59.89099838
space,0.58537,space,3.94582,,,large,0,79,79,79,1,4,0.1,False,None,Z01,r3,2021-04-23_20h20.27.590,subsecond_timing_v2,2021.1.2,Win32,59.89099838
space,0.70694,space,3.713535,,,large,0,80,80,80,1,3.5,0.1,False,None,Z01,r3,2021-04-23_20h20.27.590,subsecond_timing_v2,2021.1.2,Win32,59.89099838
space,0.817815,space,2.50115,,,large,0,81,81,81,1,2,0.1,False,None,Z01,r3,2021-04-23_20h20.27.590,subsecond_timing_v2,2021.1.2,Win32,59.89099838
space,0.64433,space,4.320685,,,large,0,82,82,82,1,4.5,0.1,False,None,Z01,r3,2021-04-23_20h20.27.590,subsecond_timing_v2,2021.1.2,Win32,59.89099838
space,0.71908,space,2.63388,,,large,0,83,83,83,1,3,0.2,False,None,Z01,r3,2021-04-23_20h20.27.590,subsecond_timing_v2,2021.1.2,Win32,59.89099838
space,0.703845,space,2.8845,,,large,0,84,84,84,1,2.5,0.2,False,None,Z01,r3,2021-04-23_20h20.27.590,subsecond_timing_v2,2021.1.2,Win32,59.89099838
space,0.806085,space,6.05171,,,large,0,85,85,85,1,6,0.1,False,None,Z01,r3,2021-04-23_20h20.27.590,subsecond_timing_v2,2021.1.2,Win32,59.89099838
space,0.77469,space,5.05246,,,large,0,86,86,86,1,5,0.3,False,None,Z01,r3,2021-04-23_20h20.27.590,subsecond_timing_v2,2021.1.2,Win32,59.89099838
space,0.809105,space,2.2267,,,large,0,87,87,87,1,2,0.3,False,None,Z01,r3,2021-04-23_20h20.27.590,subsecond_timing_v2,2021.1.2,Win32,59.89099838
space,0.59654,space,3.92406,,,large,0,88,88,88,1,4,0.3,False,None,Z01,r3,2021-04-23_20h20.27.590,subsecond_timing_v2,2021.1.2,Win32,59.89099838
space,0.79297,space,3.643555,,,large,0,89,89,89,1,3.5,0.1,False,None,Z01,r3,2021-04-23_20h20.27.590,subsecond_timing_v2,2021.1.2,Win32,59.89099838
space,0.54188,space,4.13836,,,large,0,90,90,90,1,4.5,0.1,False,None,Z01,r3,2021-04-23_20h20.27.590,subsecond_timing_v2,2021.1.2,Win32,59.89099838
space,0.795305,space,3.274485,,,large,0,91,91,91,1,3,0.2,False,None,Z01,r3,2021-04-23_20h20.27.590,subsecond_timing_v2,2021.1.2,Win32,59.89099838
space,0.809595,space,5.029505,,,large,0,92,92,92,1,5.5,0.3,False,None,Z01,r3,2021-04-23_20h20.27.590,subsecond_timing_v2,2021.1.2,Win32,59.89099838
