key_resp_start.keys,key_resp_start.rt,key_resp_stop.keys,key_resp_stop.rt,feedback_range,hit,stimulus_range,trials.thisRepN,trials.thisTrialN,trials.thisN,trials.thisIndex,trials.ran,stimulus_duration,onset,feedback,feedback_range_fromfile,participant,session,date,expName,psychopyVersion,OS,frameRate
space,0.972355,space,0.80195,0.3,TRUE,Training,0,0,0,0,1,1,0.3,True,0.3,Z02,r1,2021-05-06_16h11.35.709,subsecond_timing_v2,2021.1.2,Win32,60.74965069
space,0.53452,space,0.717135,0.3,TRUE,Training,0,1,1,1,1,0.75,0.1,True,0.3,Z02,r1,2021-05-06_16h11.35.709,subsecond_timing_v2,2021.1.2,Win32,60.74965069
space,0.63758,space,0.492295,0.3,TRUE,Training,0,2,2,2,1,0.5,0.1,True,0.3,Z02,r1,2021-05-06_16h11.35.709,subsecond_timing_v2,2021.1.2,Win32,60.74965069
space,0.567425,space,0.62063,0.3,TRUE,Training,0,3,3,3,1,0.5,0.2,True,0.3,Z02,r1,2021-05-06_16h11.35.709,subsecond_timing_v2,2021.1.2,Win32,60.74965069
space,0.567645,space,0.46741,0.3,FALSE,Training,0,4,4,4,1,0.75,0.2,True,0.3,Z02,r1,2021-05-06_16h11.35.709,subsecond_timing_v2,2021.1.2,Win32,60.74965069
space,0.683045,space,0.952225,0.3,TRUE,Training,0,5,5,5,1,1,0.3,True,0.3,Z02,r1,2021-05-06_16h11.35.709,subsecond_timing_v2,2021.1.2,Win32,60.74965069
space,0.574215,space,0.736925,,,ms_small,0,6,6,6,1,0.706,0.2,False,None,Z02,r1,2021-05-06_16h11.35.709,subsecond_timing_v2,2021.1.2,Win32,60.74965069
space,0.63994,space,0.62624,,,ms_small,0,7,7,7,1,0.812,0.3,False,None,Z02,r1,2021-05-06_16h11.35.709,subsecond_timing_v2,2021.1.2,Win32,60.74965069
space,0.62502,space,0.68412,,,ms_small,0,8,8,8,1,0.847,0.1,False,None,Z02,r1,2021-05-06_16h11.35.709,subsecond_timing_v2,2021.1.2,Win32,60.74965069
space,0.780945,space,0.784335,,,ms_small,0,9,9,9,1,0.67,0.3,False,None,Z02,r1,2021-05-06_16h11.35.709,subsecond_timing_v2,2021.1.2,Win32,60.74965069
space,0.50996,space,0.98544,,,ms_small,0,10,10,10,1,0.988,0.1,False,None,Z02,r1,2021-05-06_16h11.35.709,subsecond_timing_v2,2021.1.2,Win32,60.74965069
space,0.70144,space,1.080005,,,ms_small,0,11,11,11,1,0.953,0.1,False,None,Z02,r1,2021-05-06_16h11.35.709,subsecond_timing_v2,2021.1.2,Win32,60.74965069
space,0.854685,space,0.939435,,,ms_small,0,12,12,12,1,0.882,0.3,False,None,Z02,r1,2021-05-06_16h11.35.709,subsecond_timing_v2,2021.1.2,Win32,60.74965069
space,0.902455,space,0.88361,,,ms_small,0,13,13,13,1,0.918,0.1,False,None,Z02,r1,2021-05-06_16h11.35.709,subsecond_timing_v2,2021.1.2,Win32,60.74965069
space,1.013625,space,0.699925,,,ms_small,0,14,14,14,1,0.776,0.2,False,None,Z02,r1,2021-05-06_16h11.35.709,subsecond_timing_v2,2021.1.2,Win32,60.74965069
space,0.93658,space,0.824605,,,ms_small,0,15,15,15,1,0.741,0.3,False,None,Z02,r1,2021-05-06_16h11.35.709,subsecond_timing_v2,2021.1.2,Win32,60.74965069
space,1.2727,space,0.73338,,,ms_small,0,16,16,16,1,1.024,0.3,False,None,Z02,r1,2021-05-06_16h11.35.709,subsecond_timing_v2,2021.1.2,Win32,60.74965069
space,0.887785,space,0.60035,,,ms_small,0,17,17,17,1,0.67,0.1,False,None,Z02,r1,2021-05-06_16h11.35.709,subsecond_timing_v2,2021.1.2,Win32,60.74965069
space,0.97945,space,0.684685,,,ms_small,0,18,18,18,1,0.812,0.3,False,None,Z02,r1,2021-05-06_16h11.35.709,subsecond_timing_v2,2021.1.2,Win32,60.74965069
space,1.019525,space,0.753275,,,ms_small,0,19,19,19,1,0.953,0.3,False,None,Z02,r1,2021-05-06_16h11.35.709,subsecond_timing_v2,2021.1.2,Win32,60.74965069
space,0.94125,space,0.702905,,,ms_small,0,20,20,20,1,0.776,0.1,False,None,Z02,r1,2021-05-06_16h11.35.709,subsecond_timing_v2,2021.1.2,Win32,60.74965069
space,0.88829,space,0.616645,,,ms_small,0,21,21,21,1,0.741,0.2,False,None,Z02,r1,2021-05-06_16h11.35.709,subsecond_timing_v2,2021.1.2,Win32,60.74965069
space,0.901165,space,0.71803,,,ms_small,0,22,22,22,1,0.847,0.2,False,None,Z02,r1,2021-05-06_16h11.35.709,subsecond_timing_v2,2021.1.2,Win32,60.74965069
space,0.861975,space,0.840735,,,ms_small,0,23,23,23,1,1.024,0.1,False,None,Z02,r1,2021-05-06_16h11.35.709,subsecond_timing_v2,2021.1.2,Win32,60.74965069
space,1.076695,space,0.97686,,,ms_small,0,24,24,24,1,0.882,0.3,False,None,Z02,r1,2021-05-06_16h11.35.709,subsecond_timing_v2,2021.1.2,Win32,60.74965069
space,1.166475,space,0.912,,,ms_small,0,25,25,25,1,0.988,0.1,False,None,Z02,r1,2021-05-06_16h11.35.709,subsecond_timing_v2,2021.1.2,Win32,60.74965069
space,1.03563,space,0.89547,,,ms_small,0,26,26,26,1,0.706,0.2,False,None,Z02,r1,2021-05-06_16h11.35.709,subsecond_timing_v2,2021.1.2,Win32,60.74965069
space,1.19054,space,0.957045,,,ms_small,0,27,27,27,1,0.918,0.3,False,None,Z02,r1,2021-05-06_16h11.35.709,subsecond_timing_v2,2021.1.2,Win32,60.74965069
space,1.040215,space,0.77255,,,ms_small,0,28,28,28,1,0.706,0.1,False,None,Z02,r1,2021-05-06_16h11.35.709,subsecond_timing_v2,2021.1.2,Win32,60.74965069
space,1.08168,space,0.88289,,,ms_small,0,29,29,29,1,0.918,0.1,False,None,Z02,r1,2021-05-06_16h11.35.709,subsecond_timing_v2,2021.1.2,Win32,60.74965069
space,1.119745,space,0.67521,,,ms_small,0,30,30,30,1,0.67,0.2,False,None,Z02,r1,2021-05-06_16h11.35.709,subsecond_timing_v2,2021.1.2,Win32,60.74965069
space,1.11366,space,1.12115,,,ms_small,0,31,31,31,1,0.988,0.1,False,None,Z02,r1,2021-05-06_16h11.35.709,subsecond_timing_v2,2021.1.2,Win32,60.74965069
space,1.06905,space,1.00847,,,ms_small,0,32,32,32,1,0.953,0.2,False,None,Z02,r1,2021-05-06_16h11.35.709,subsecond_timing_v2,2021.1.2,Win32,60.74965069
space,0.958055,space,0.912225,,,ms_small,0,33,33,33,1,0.776,0.1,False,None,Z02,r1,2021-05-06_16h11.35.709,subsecond_timing_v2,2021.1.2,Win32,60.74965069
space,0.934695,space,0.93583,,,ms_small,0,34,34,34,1,0.847,0.1,False,None,Z02,r1,2021-05-06_16h11.35.709,subsecond_timing_v2,2021.1.2,Win32,60.74965069
space,0.904105,space,0.79809,,,ms_small,0,35,35,35,1,0.741,0.2,False,None,Z02,r1,2021-05-06_16h11.35.709,subsecond_timing_v2,2021.1.2,Win32,60.74965069
space,1.00969,space,0.801815,,,ms_small,0,36,36,36,1,0.812,0.1,False,None,Z02,r1,2021-05-06_16h11.35.709,subsecond_timing_v2,2021.1.2,Win32,60.74965069
space,0.989565,space,0.791185,,,ms_small,0,37,37,37,1,0.882,0.1,False,None,Z02,r1,2021-05-06_16h11.35.709,subsecond_timing_v2,2021.1.2,Win32,60.74965069
space,0.818115,space,0.820475,,,ms_small,0,38,38,38,1,1.024,0.3,False,None,Z02,r1,2021-05-06_16h11.35.709,subsecond_timing_v2,2021.1.2,Win32,60.74965069
space,1.013025,space,1.010855,,,ms_small,0,39,39,39,1,0.847,0.2,False,None,Z02,r1,2021-05-06_16h11.35.709,subsecond_timing_v2,2021.1.2,Win32,60.74965069
space,0.86761,space,1.005435,,,ms_small,0,40,40,40,1,0.918,0.2,False,None,Z02,r1,2021-05-06_16h11.35.709,subsecond_timing_v2,2021.1.2,Win32,60.74965069
space,0.911555,space,1.12413,,,ms_small,0,41,41,41,1,0.953,0.1,False,None,Z02,r1,2021-05-06_16h11.35.709,subsecond_timing_v2,2021.1.2,Win32,60.74965069
space,0.98659,space,0.765495,,,ms_small,0,42,42,42,1,0.882,0.3,False,None,Z02,r1,2021-05-06_16h11.35.709,subsecond_timing_v2,2021.1.2,Win32,60.74965069
space,1.09111,space,1.0418,,,ms_small,0,43,43,43,1,0.741,0.2,False,None,Z02,r1,2021-05-06_16h11.35.709,subsecond_timing_v2,2021.1.2,Win32,60.74965069
space,0.82411,space,0.80877,,,ms_small,0,44,44,44,1,0.67,0.3,False,None,Z02,r1,2021-05-06_16h11.35.709,subsecond_timing_v2,2021.1.2,Win32,60.74965069
space,1.03468,space,1.1333,,,ms_small,0,45,45,45,1,0.812,0.2,False,None,Z02,r1,2021-05-06_16h11.35.709,subsecond_timing_v2,2021.1.2,Win32,60.74965069
space,0.92659,space,1.03331,,,ms_small,0,46,46,46,1,1.024,0.3,False,None,Z02,r1,2021-05-06_16h11.35.709,subsecond_timing_v2,2021.1.2,Win32,60.74965069
space,0.816425,space,0.77199,,,ms_small,0,47,47,47,1,0.706,0.3,False,None,Z02,r1,2021-05-06_16h11.35.709,subsecond_timing_v2,2021.1.2,Win32,60.74965069
space,0.99966,space,0.84289,,,ms_small,0,48,48,48,1,0.988,0.2,False,None,Z02,r1,2021-05-06_16h11.35.709,subsecond_timing_v2,2021.1.2,Win32,60.74965069
space,0.89598,space,1.007185,,,ms_small,0,49,49,49,1,0.776,0.1,False,None,Z02,r1,2021-05-06_16h11.35.709,subsecond_timing_v2,2021.1.2,Win32,60.74965069
space,1.03711,space,0.99851,,,ms_small,0,50,50,50,1,0.988,0.1,False,None,Z02,r1,2021-05-06_16h11.35.709,subsecond_timing_v2,2021.1.2,Win32,60.74965069
space,0.839375,space,0.469165,,,ms_small,0,51,51,51,1,0.706,0.3,False,None,Z02,r1,2021-05-06_16h11.35.709,subsecond_timing_v2,2021.1.2,Win32,60.74965069
space,0.91664,space,0.68111,,,ms_small,0,52,52,52,1,0.953,0.2,False,None,Z02,r1,2021-05-06_16h11.35.709,subsecond_timing_v2,2021.1.2,Win32,60.74965069
space,0.859575,space,0.76914,,,ms_small,0,53,53,53,1,0.847,0.2,False,None,Z02,r1,2021-05-06_16h11.35.709,subsecond_timing_v2,2021.1.2,Win32,60.74965069
space,0.99389,space,0.768545,,,ms_small,0,54,54,54,1,0.918,0.3,False,None,Z02,r1,2021-05-06_16h11.35.709,subsecond_timing_v2,2021.1.2,Win32,60.74965069
space,0.810925,space,0.537145,,,ms_small,0,55,55,55,1,0.741,0.1,False,None,Z02,r1,2021-05-06_16h11.35.709,subsecond_timing_v2,2021.1.2,Win32,60.74965069
space,0.793815,space,0.565805,,,ms_small,0,56,56,56,1,0.67,0.1,False,None,Z02,r1,2021-05-06_16h11.35.709,subsecond_timing_v2,2021.1.2,Win32,60.74965069
space,0.902805,space,0.736495,,,ms_small,0,57,57,57,1,0.776,0.2,False,None,Z02,r1,2021-05-06_16h11.35.709,subsecond_timing_v2,2021.1.2,Win32,60.74965069
space,0.679435,space,0.9126,,,ms_small,0,58,58,58,1,0.882,0.1,False,None,Z02,r1,2021-05-06_16h11.35.709,subsecond_timing_v2,2021.1.2,Win32,60.74965069
space,0.802535,space,0.818645,,,ms_small,0,59,59,59,1,0.812,0.2,False,None,Z02,r1,2021-05-06_16h11.35.709,subsecond_timing_v2,2021.1.2,Win32,60.74965069
space,0.89062,space,1.101845,,,ms_small,0,60,60,60,1,1.024,0.2,False,None,Z02,r1,2021-05-06_16h11.35.709,subsecond_timing_v2,2021.1.2,Win32,60.74965069
space,0.90107,space,0.827185,,,ms_small,0,61,61,61,1,0.847,0.3,False,None,Z02,r1,2021-05-06_16h11.35.709,subsecond_timing_v2,2021.1.2,Win32,60.74965069
space,0.704725,space,0.659755,,,ms_small,0,62,62,62,1,0.67,0.1,False,None,Z02,r1,2021-05-06_16h11.35.709,subsecond_timing_v2,2021.1.2,Win32,60.74965069
space,0.695365,space,0.840355,,,ms_small,0,63,63,63,1,0.988,0.3,False,None,Z02,r1,2021-05-06_16h11.35.709,subsecond_timing_v2,2021.1.2,Win32,60.74965069
space,0.76939,space,0.834575,,,ms_small,0,64,64,64,1,0.812,0.1,False,None,Z02,r1,2021-05-06_16h11.35.709,subsecond_timing_v2,2021.1.2,Win32,60.74965069
space,0.90792,space,1.0062,,,ms_small,0,65,65,65,1,0.882,0.3,False,None,Z02,r1,2021-05-06_16h11.35.709,subsecond_timing_v2,2021.1.2,Win32,60.74965069
space,0.95478,space,0.92976,,,ms_small,0,66,66,66,1,0.918,0.1,False,None,Z02,r1,2021-05-06_16h11.35.709,subsecond_timing_v2,2021.1.2,Win32,60.74965069
space,0.70982,space,1.083755,,,ms_small,0,67,67,67,1,1.024,0.1,False,None,Z02,r1,2021-05-06_16h11.35.709,subsecond_timing_v2,2021.1.2,Win32,60.74965069
space,0.85975,space,0.951725,,,ms_small,0,68,68,68,1,0.776,0.2,False,None,Z02,r1,2021-05-06_16h11.35.709,subsecond_timing_v2,2021.1.2,Win32,60.74965069
space,0.73481,space,0.97969,,,ms_small,0,69,69,69,1,0.953,0.1,False,None,Z02,r1,2021-05-06_16h11.35.709,subsecond_timing_v2,2021.1.2,Win32,60.74965069
space,0.98621,space,1.03973,,,ms_small,0,70,70,70,1,0.706,0.1,False,None,Z02,r1,2021-05-06_16h11.35.709,subsecond_timing_v2,2021.1.2,Win32,60.74965069
space,0.75468,space,1.350535,,,ms_small,0,71,71,71,1,0.741,0.3,False,None,Z02,r1,2021-05-06_16h11.35.709,subsecond_timing_v2,2021.1.2,Win32,60.74965069
space,0.82618,space,0.98847,,,ms_small,0,72,72,72,1,0.882,0.2,False,None,Z02,r1,2021-05-06_16h11.35.709,subsecond_timing_v2,2021.1.2,Win32,60.74965069
space,0.82529,space,0.71772,,,ms_small,0,73,73,73,1,0.918,0.3,False,None,Z02,r1,2021-05-06_16h11.35.709,subsecond_timing_v2,2021.1.2,Win32,60.74965069
space,0.795885,space,0.83113,,,ms_small,0,74,74,74,1,0.988,0.2,False,None,Z02,r1,2021-05-06_16h11.35.709,subsecond_timing_v2,2021.1.2,Win32,60.74965069
space,0.95254,space,0.766575,,,ms_small,0,75,75,75,1,0.67,0.1,False,None,Z02,r1,2021-05-06_16h11.35.709,subsecond_timing_v2,2021.1.2,Win32,60.74965069
space,0.73829,space,0.96769,,,ms_small,0,76,76,76,1,0.776,0.3,False,None,Z02,r1,2021-05-06_16h11.35.709,subsecond_timing_v2,2021.1.2,Win32,60.74965069
space,0.769465,space,0.80359,,,ms_small,0,77,77,77,1,0.847,0.2,False,None,Z02,r1,2021-05-06_16h11.35.709,subsecond_timing_v2,2021.1.2,Win32,60.74965069
space,0.46247,space,1.019025,,,ms_small,0,78,78,78,1,1.024,0.2,False,None,Z02,r1,2021-05-06_16h11.35.709,subsecond_timing_v2,2021.1.2,Win32,60.74965069
space,0.8147,space,0.783565,,,ms_small,0,79,79,79,1,0.812,0.3,False,None,Z02,r1,2021-05-06_16h11.35.709,subsecond_timing_v2,2021.1.2,Win32,60.74965069
space,0.920025,space,0.844685,,,ms_small,0,80,80,80,1,0.953,0.1,False,None,Z02,r1,2021-05-06_16h11.35.709,subsecond_timing_v2,2021.1.2,Win32,60.74965069
space,0.825655,space,0.601105,,,ms_small,0,81,81,81,1,0.706,0.2,False,None,Z02,r1,2021-05-06_16h11.35.709,subsecond_timing_v2,2021.1.2,Win32,60.74965069
space,0.64059,space,0.48428,,,ms_small,0,82,82,82,1,0.741,0.3,False,None,Z02,r1,2021-05-06_16h11.35.709,subsecond_timing_v2,2021.1.2,Win32,60.74965069
space,0.722775,space,0.517635,,,ms_small,0,83,83,83,1,0.706,0.1,False,None,Z02,r1,2021-05-06_16h11.35.709,subsecond_timing_v2,2021.1.2,Win32,60.74965069
space,0.50794,space,0.567915,,,ms_small,0,84,84,84,1,0.812,0.2,False,None,Z02,r1,2021-05-06_16h11.35.709,subsecond_timing_v2,2021.1.2,Win32,60.74965069
space,0.77215,space,0.535055,,,ms_small,0,85,85,85,1,0.882,0.2,False,None,Z02,r1,2021-05-06_16h11.35.709,subsecond_timing_v2,2021.1.2,Win32,60.74965069
space,0.82889,space,0.58916,,,ms_small,0,86,86,86,1,0.776,0.1,False,None,Z02,r1,2021-05-06_16h11.35.709,subsecond_timing_v2,2021.1.2,Win32,60.74965069
space,0.558705,space,0.823645,,,ms_small,0,87,87,87,1,0.988,0.3,False,None,Z02,r1,2021-05-06_16h11.35.709,subsecond_timing_v2,2021.1.2,Win32,60.74965069
space,0.96462,space,0.642755,,,ms_small,0,88,88,88,1,0.67,0.2,False,None,Z02,r1,2021-05-06_16h11.35.709,subsecond_timing_v2,2021.1.2,Win32,60.74965069
space,0.63569,space,0.484445,,,ms_small,0,89,89,89,1,0.741,0.3,False,None,Z02,r1,2021-05-06_16h11.35.709,subsecond_timing_v2,2021.1.2,Win32,60.74965069
space,0.61963,space,0.645285,,,ms_small,0,90,90,90,1,0.918,0.1,False,None,Z02,r1,2021-05-06_16h11.35.709,subsecond_timing_v2,2021.1.2,Win32,60.74965069
space,0.653605,space,0.761495,,,ms_small,0,91,91,91,1,0.847,0.3,False,None,Z02,r1,2021-05-06_16h11.35.709,subsecond_timing_v2,2021.1.2,Win32,60.74965069
space,1.102165,space,0.817875,,,ms_small,0,92,92,92,1,0.953,0.2,False,None,Z02,r1,2021-05-06_16h11.35.709,subsecond_timing_v2,2021.1.2,Win32,60.74965069
space,1.046565,space,0.771425,,,ms_small,0,93,93,93,1,1.024,0.2,False,None,Z02,r1,2021-05-06_16h11.35.709,subsecond_timing_v2,2021.1.2,Win32,60.74965069
space,0.943715,space,1.003865,,,ms_small,0,94,94,94,1,0.882,0.1,False,None,Z02,r1,2021-05-06_16h11.35.709,subsecond_timing_v2,2021.1.2,Win32,60.74965069
space,1.033945,space,0.962095,,,ms_small,0,95,95,95,1,0.67,0.2,False,None,Z02,r1,2021-05-06_16h11.35.709,subsecond_timing_v2,2021.1.2,Win32,60.74965069
space,0.7377,space,1.422445,,,ms_small,0,96,96,96,1,0.918,0.3,False,None,Z02,r1,2021-05-06_16h11.35.709,subsecond_timing_v2,2021.1.2,Win32,60.74965069
space,0.83601,space,0.74007,,,ms_small,0,97,97,97,1,0.706,0.2,False,None,Z02,r1,2021-05-06_16h11.35.709,subsecond_timing_v2,2021.1.2,Win32,60.74965069
space,0.93381,space,0.858775,,,ms_small,0,98,98,98,1,0.988,0.1,False,None,Z02,r1,2021-05-06_16h11.35.709,subsecond_timing_v2,2021.1.2,Win32,60.74965069
space,0.77502,space,1.08278,,,ms_small,0,99,99,99,1,0.741,0.3,False,None,Z02,r1,2021-05-06_16h11.35.709,subsecond_timing_v2,2021.1.2,Win32,60.74965069
space,0.63577,space,1.024965,,,ms_small,0,100,100,100,1,1.024,0.2,False,None,Z02,r1,2021-05-06_16h11.35.709,subsecond_timing_v2,2021.1.2,Win32,60.74965069
space,0.763195,space,0.98547,,,ms_small,0,101,101,101,1,0.776,0.2,False,None,Z02,r1,2021-05-06_16h11.35.709,subsecond_timing_v2,2021.1.2,Win32,60.74965069
space,0.746615,space,0.78305,,,ms_small,0,102,102,102,1,0.812,0.2,False,None,Z02,r1,2021-05-06_16h11.35.709,subsecond_timing_v2,2021.1.2,Win32,60.74965069
space,0.785325,space,1.16914,,,ms_small,0,103,103,103,1,0.953,0.2,False,None,Z02,r1,2021-05-06_16h11.35.709,subsecond_timing_v2,2021.1.2,Win32,60.74965069
space,0.62444,space,0.909515,,,ms_small,0,104,104,104,1,0.847,0.1,False,None,Z02,r1,2021-05-06_16h11.35.709,subsecond_timing_v2,2021.1.2,Win32,60.74965069
space,1.00932,space,0.80484,,,ms_small,0,105,105,105,1,0.706,0.2,False,None,Z02,r1,2021-05-06_16h11.35.709,subsecond_timing_v2,2021.1.2,Win32,60.74965069
space,3.968945,space,0.502785,,,ms_small,0,106,106,106,1,0.741,0.1,False,None,Z02,r1,2021-05-06_16h11.35.709,subsecond_timing_v2,2021.1.2,Win32,60.74965069
space,0.772845,space,1.13508,,,ms_small,0,107,107,107,1,0.67,0.1,False,None,Z02,r1,2021-05-06_16h11.35.709,subsecond_timing_v2,2021.1.2,Win32,60.74965069
space,0.9631,space,0.734785,,,ms_small,0,108,108,108,1,0.847,0.1,False,None,Z02,r1,2021-05-06_16h11.35.709,subsecond_timing_v2,2021.1.2,Win32,60.74965069
space,0.858335,space,0.89988,,,ms_small,0,109,109,109,1,0.812,0.2,False,None,Z02,r1,2021-05-06_16h11.35.709,subsecond_timing_v2,2021.1.2,Win32,60.74965069
space,0.817625,space,1.069175,,,ms_small,0,110,110,110,1,0.776,0.3,False,None,Z02,r1,2021-05-06_16h11.35.709,subsecond_timing_v2,2021.1.2,Win32,60.74965069
space,0.652515,space,1.11944,,,ms_small,0,111,111,111,1,0.988,0.3,False,None,Z02,r1,2021-05-06_16h11.35.709,subsecond_timing_v2,2021.1.2,Win32,60.74965069
space,0.68127,space,0.943975,,,ms_small,0,112,112,112,1,0.918,0.1,False,None,Z02,r1,2021-05-06_16h11.35.709,subsecond_timing_v2,2021.1.2,Win32,60.74965069
space,0.79586,space,0.795925,,,ms_small,0,113,113,113,1,0.882,0.1,False,None,Z02,r1,2021-05-06_16h11.35.709,subsecond_timing_v2,2021.1.2,Win32,60.74965069
space,1.06132,space,1.03134,,,ms_small,0,114,114,114,1,1.024,0.2,False,None,Z02,r1,2021-05-06_16h11.35.709,subsecond_timing_v2,2021.1.2,Win32,60.74965069
space,1.19016,space,0.75122,,,ms_small,0,115,115,115,1,0.953,0.2,False,None,Z02,r1,2021-05-06_16h11.35.709,subsecond_timing_v2,2021.1.2,Win32,60.74965069
space,1.02017,space,0.65233,,,ms_small,0,116,116,116,1,0.847,0.3,False,None,Z02,r1,2021-05-06_16h11.35.709,subsecond_timing_v2,2021.1.2,Win32,60.74965069
space,0.97135,space,0.72166,,,ms_small,0,117,117,117,1,0.882,0.2,False,None,Z02,r1,2021-05-06_16h11.35.709,subsecond_timing_v2,2021.1.2,Win32,60.74965069
space,1.02812,space,1.038795,,,ms_small,0,118,118,118,1,1.024,0.1,False,None,Z02,r1,2021-05-06_16h11.35.709,subsecond_timing_v2,2021.1.2,Win32,60.74965069
space,1.00821,space,0.924535,,,ms_small,0,119,119,119,1,0.706,0.2,False,None,Z02,r1,2021-05-06_16h11.35.709,subsecond_timing_v2,2021.1.2,Win32,60.74965069
space,1.30187,space,1.04589,,,ms_small,0,120,120,120,1,0.918,0.1,False,None,Z02,r1,2021-05-06_16h11.35.709,subsecond_timing_v2,2021.1.2,Win32,60.74965069
space,0.960225,space,0.81134,,,ms_small,0,121,121,121,1,0.776,0.1,False,None,Z02,r1,2021-05-06_16h11.35.709,subsecond_timing_v2,2021.1.2,Win32,60.74965069
space,0.934825,space,0.992315,,,ms_small,0,122,122,122,1,0.953,0.3,False,None,Z02,r1,2021-05-06_16h11.35.709,subsecond_timing_v2,2021.1.2,Win32,60.74965069
space,0.866765,space,0.97633,,,ms_small,0,123,123,123,1,0.67,0.1,False,None,Z02,r1,2021-05-06_16h11.35.709,subsecond_timing_v2,2021.1.2,Win32,60.74965069
space,0.75683,space,1.086115,,,ms_small,0,124,124,124,1,0.812,0.2,False,None,Z02,r1,2021-05-06_16h11.35.709,subsecond_timing_v2,2021.1.2,Win32,60.74965069
space,0.961035,space,0.88753,,,ms_small,0,125,125,125,1,0.988,0.2,False,None,Z02,r1,2021-05-06_16h11.35.709,subsecond_timing_v2,2021.1.2,Win32,60.74965069
space,0.74227,space,0.536825,,,ms_small,0,126,126,126,1,0.741,0.3,False,None,Z02,r1,2021-05-06_16h11.35.709,subsecond_timing_v2,2021.1.2,Win32,60.74965069
space,0.762865,space,0.710515,,,ms_small,0,127,127,127,1,0.67,0.1,False,None,Z02,r1,2021-05-06_16h11.35.709,subsecond_timing_v2,2021.1.2,Win32,60.74965069
space,0.68327,space,0.725295,,,ms_small,0,128,128,128,1,0.776,0.3,False,None,Z02,r1,2021-05-06_16h11.35.709,subsecond_timing_v2,2021.1.2,Win32,60.74965069
space,0.459505,space,0.45085,,,ms_small,0,129,129,129,1,0.847,0.1,False,None,Z02,r1,2021-05-06_16h11.35.709,subsecond_timing_v2,2021.1.2,Win32,60.74965069
space,0.53495,space,0.773505,,,ms_small,0,130,130,130,1,0.812,0.1,False,None,Z02,r1,2021-05-06_16h11.35.709,subsecond_timing_v2,2021.1.2,Win32,60.74965069
space,0.8711,space,0.635465,,,ms_small,0,131,131,131,1,0.882,0.1,False,None,Z02,r1,2021-05-06_16h11.35.709,subsecond_timing_v2,2021.1.2,Win32,60.74965069
space,0.65722,space,0.97674,,,ms_small,0,132,132,132,1,1.024,0.2,False,None,Z02,r1,2021-05-06_16h11.35.709,subsecond_timing_v2,2021.1.2,Win32,60.74965069
space,1.362845,space,0.63966,,,ms_small,0,133,133,133,1,0.953,0.3,False,None,Z02,r1,2021-05-06_16h11.35.709,subsecond_timing_v2,2021.1.2,Win32,60.74965069
space,0.622355,space,1.013235,,,ms_small,0,134,134,134,1,0.988,0.2,False,None,Z02,r1,2021-05-06_16h11.35.709,subsecond_timing_v2,2021.1.2,Win32,60.74965069
space,1.338265,space,0.466085,,,ms_small,0,135,135,135,1,0.706,0.1,False,None,Z02,r1,2021-05-06_16h11.35.709,subsecond_timing_v2,2021.1.2,Win32,60.74965069
space,0.557,space,0.92802,,,ms_small,0,136,136,136,1,0.918,0.1,False,None,Z02,r1,2021-05-06_16h11.35.709,subsecond_timing_v2,2021.1.2,Win32,60.74965069
space,0.645505,space,0.5616,,,ms_small,0,137,137,137,1,0.741,0.1,False,None,Z02,r1,2021-05-06_16h11.35.709,subsecond_timing_v2,2021.1.2,Win32,60.74965069
space,0.846475,space,0.44386,,,ms_small,0,138,138,138,1,0.741,0.3,False,None,Z02,r1,2021-05-06_16h11.35.709,subsecond_timing_v2,2021.1.2,Win32,60.74965069
space,0.73287,space,0.59063,,,ms_small,0,139,139,139,1,0.988,0.2,False,None,Z02,r1,2021-05-06_16h11.35.709,subsecond_timing_v2,2021.1.2,Win32,60.74965069
space,0.69722,space,0.472,,,ms_small,0,140,140,140,1,0.812,0.3,False,None,Z02,r1,2021-05-06_16h11.35.709,subsecond_timing_v2,2021.1.2,Win32,60.74965069
space,0.97372,space,0.61631,,,ms_small,0,141,141,141,1,0.918,0.2,False,None,Z02,r1,2021-05-06_16h11.35.709,subsecond_timing_v2,2021.1.2,Win32,60.74965069
space,0.96447,space,0.93443,,,ms_small,0,142,142,142,1,0.847,0.2,False,None,Z02,r1,2021-05-06_16h11.35.709,subsecond_timing_v2,2021.1.2,Win32,60.74965069
space,0.861925,space,0.651265,,,ms_small,0,143,143,143,1,0.953,0.1,False,None,Z02,r1,2021-05-06_16h11.35.709,subsecond_timing_v2,2021.1.2,Win32,60.74965069
space,0.827325,space,0.58898,,,ms_small,0,144,144,144,1,0.776,0.3,False,None,Z02,r1,2021-05-06_16h11.35.709,subsecond_timing_v2,2021.1.2,Win32,60.74965069
space,0.59812,space,0.666365,,,ms_small,0,145,145,145,1,0.706,0.3,False,None,Z02,r1,2021-05-06_16h11.35.709,subsecond_timing_v2,2021.1.2,Win32,60.74965069
space,0.94507,space,0.68827,,,ms_small,0,146,146,146,1,1.024,0.1,False,None,Z02,r1,2021-05-06_16h11.35.709,subsecond_timing_v2,2021.1.2,Win32,60.74965069
space,0.77248,space,0.946365,,,ms_small,0,147,147,147,1,0.882,0.2,False,None,Z02,r1,2021-05-06_16h11.35.709,subsecond_timing_v2,2021.1.2,Win32,60.74965069
space,0.995705,space,1.04956,,,ms_small,0,148,148,148,1,0.67,0.3,False,None,Z02,r1,2021-05-06_16h11.35.709,subsecond_timing_v2,2021.1.2,Win32,60.74965069
space,1.002715,space,0.64434,,,ms_small,0,149,149,149,1,0.67,0.3,False,None,Z02,r1,2021-05-06_16h11.35.709,subsecond_timing_v2,2021.1.2,Win32,60.74965069
space,1.021335,space,0.7189,,,ms_small,0,150,150,150,1,0.741,0.3,False,None,Z02,r1,2021-05-06_16h11.35.709,subsecond_timing_v2,2021.1.2,Win32,60.74965069
space,0.811325,space,0.81437,,,ms_small,0,151,151,151,1,0.918,0.1,False,None,Z02,r1,2021-05-06_16h11.35.709,subsecond_timing_v2,2021.1.2,Win32,60.74965069
space,0.69433,space,0.755115,,,ms_small,0,152,152,152,1,0.706,0.3,False,None,Z02,r1,2021-05-06_16h11.35.709,subsecond_timing_v2,2021.1.2,Win32,60.74965069
space,0.68551,space,0.76914,,,ms_small,0,153,153,153,1,0.988,0.2,False,None,Z02,r1,2021-05-06_16h11.35.709,subsecond_timing_v2,2021.1.2,Win32,60.74965069
space,0.92301,space,0.7994,,,ms_small,0,154,154,154,1,0.847,0.2,False,None,Z02,r1,2021-05-06_16h11.35.709,subsecond_timing_v2,2021.1.2,Win32,60.74965069
space,1.002475,space,0.802605,,,ms_small,0,155,155,155,1,0.776,0.3,False,None,Z02,r1,2021-05-06_16h11.35.709,subsecond_timing_v2,2021.1.2,Win32,60.74965069
space,0.871975,space,0.90817,,,ms_small,0,156,156,156,1,0.882,0.2,False,None,Z02,r1,2021-05-06_16h11.35.709,subsecond_timing_v2,2021.1.2,Win32,60.74965069
space,0.977325,space,0.887285,,,ms_small,0,157,157,157,1,0.812,0.1,False,None,Z02,r1,2021-05-06_16h11.35.709,subsecond_timing_v2,2021.1.2,Win32,60.74965069
space,0.9453,space,1.06757,,,ms_small,0,158,158,158,1,1.024,0.1,False,None,Z02,r1,2021-05-06_16h11.35.709,subsecond_timing_v2,2021.1.2,Win32,60.74965069
space,0.83797,space,0.91003,,,ms_small,0,159,159,159,1,0.953,0.2,False,None,Z02,r1,2021-05-06_16h11.35.709,subsecond_timing_v2,2021.1.2,Win32,60.74965069
space,0.579515,space,0.924065,,,ms_small,0,160,160,160,1,0.812,0.2,False,None,Z02,r1,2021-05-06_16h11.35.709,subsecond_timing_v2,2021.1.2,Win32,60.74965069
space,0.68592,space,0.857875,,,ms_small,0,161,161,161,1,0.67,0.1,False,None,Z02,r1,2021-05-06_16h11.35.709,subsecond_timing_v2,2021.1.2,Win32,60.74965069
space,0.008915,space,0.99651,,,ms_small,0,162,162,162,1,0.953,0.1,False,None,Z02,r1,2021-05-06_16h11.35.709,subsecond_timing_v2,2021.1.2,Win32,60.74965069
space,0.49071,space,0.9029,,,ms_small,0,163,163,163,1,0.882,0.3,False,None,Z02,r1,2021-05-06_16h11.35.709,subsecond_timing_v2,2021.1.2,Win32,60.74965069
space,1.085845,space,0.88392,,,ms_small,0,164,164,164,1,0.988,0.1,False,None,Z02,r1,2021-05-06_16h11.35.709,subsecond_timing_v2,2021.1.2,Win32,60.74965069
space,1.28041,space,0.720375,,,ms_small,0,165,165,165,1,0.706,0.1,False,None,Z02,r1,2021-05-06_16h11.35.709,subsecond_timing_v2,2021.1.2,Win32,60.74965069
space,1.124485,space,0.954575,,,ms_small,0,166,166,166,1,1.024,0.3,False,None,Z02,r1,2021-05-06_16h11.35.709,subsecond_timing_v2,2021.1.2,Win32,60.74965069
space,0.91227,space,0.70191,,,ms_small,0,167,167,167,1,0.847,0.3,False,None,Z02,r1,2021-05-06_16h11.35.709,subsecond_timing_v2,2021.1.2,Win32,60.74965069
space,0.904975,space,0.72435,,,ms_small,0,168,168,168,1,0.741,0.3,False,None,Z02,r1,2021-05-06_16h11.35.709,subsecond_timing_v2,2021.1.2,Win32,60.74965069
space,0.854435,space,0.74354,,,ms_small,0,169,169,169,1,0.918,0.2,False,None,Z02,r1,2021-05-06_16h11.35.709,subsecond_timing_v2,2021.1.2,Win32,60.74965069
space,0.975975,space,0.736535,,,ms_small,0,170,170,170,1,0.776,0.1,False,None,Z02,r1,2021-05-06_16h11.35.709,subsecond_timing_v2,2021.1.2,Win32,60.74965069
space,0.742915,space,0.785915,,,ms_small,0,171,171,171,1,0.882,0.3,False,None,Z02,r1,2021-05-06_16h11.35.709,subsecond_timing_v2,2021.1.2,Win32,60.74965069
space,0.81848,space,0.626075,,,ms_small,0,172,172,172,1,0.741,0.1,False,None,Z02,r1,2021-05-06_16h11.35.709,subsecond_timing_v2,2021.1.2,Win32,60.74965069
space,0.81121,space,0.973265,,,ms_small,0,173,173,173,1,0.988,0.1,False,None,Z02,r1,2021-05-06_16h11.35.709,subsecond_timing_v2,2021.1.2,Win32,60.74965069
space,0.87899,space,0.574645,,,ms_small,0,174,174,174,1,0.706,0.2,False,None,Z02,r1,2021-05-06_16h11.35.709,subsecond_timing_v2,2021.1.2,Win32,60.74965069
space,0.626335,space,0.84173,,,ms_small,0,175,175,175,1,0.918,0.2,False,None,Z02,r1,2021-05-06_16h11.35.709,subsecond_timing_v2,2021.1.2,Win32,60.74965069
space,0.727195,space,0.77812,,,ms_small,0,176,176,176,1,0.953,0.2,False,None,Z02,r1,2021-05-06_16h11.35.709,subsecond_timing_v2,2021.1.2,Win32,60.74965069
space,0.724535,space,0.56629,,,ms_small,0,177,177,177,1,0.67,0.2,False,None,Z02,r1,2021-05-06_16h11.35.709,subsecond_timing_v2,2021.1.2,Win32,60.74965069
space,0.786535,space,0.73634,,,ms_small,0,178,178,178,1,0.847,0.3,False,None,Z02,r1,2021-05-06_16h11.35.709,subsecond_timing_v2,2021.1.2,Win32,60.74965069
space,0.66926,space,0.70295,,,ms_small,0,179,179,179,1,0.776,0.1,False,None,Z02,r1,2021-05-06_16h11.35.709,subsecond_timing_v2,2021.1.2,Win32,60.74965069
space,0.7055,space,0.79335,,,ms_small,0,180,180,180,1,0.812,0.1,False,None,Z02,r1,2021-05-06_16h11.35.709,subsecond_timing_v2,2021.1.2,Win32,60.74965069
space,0.85582,space,1.088725,,,ms_small,0,181,181,181,1,1.024,0.2,False,None,Z02,r1,2021-05-06_16h11.35.709,subsecond_timing_v2,2021.1.2,Win32,60.74965069
space,0.816385,space,0.767815,,,ms_small,0,182,182,182,1,0.706,0.3,False,None,Z02,r1,2021-05-06_16h11.35.709,subsecond_timing_v2,2021.1.2,Win32,60.74965069
space,1.13934,space,0.76863,,,ms_small,0,183,183,183,1,0.988,0.1,False,None,Z02,r1,2021-05-06_16h11.35.709,subsecond_timing_v2,2021.1.2,Win32,60.74965069
space,0.52512,space,0.6827,,,ms_small,0,184,184,184,1,1.024,0.3,False,None,Z02,r1,2021-05-06_16h11.35.709,subsecond_timing_v2,2021.1.2,Win32,60.74965069
space,0.689175,space,0.86315,,,ms_small,0,185,185,185,1,0.847,0.1,False,None,Z02,r1,2021-05-06_16h11.35.709,subsecond_timing_v2,2021.1.2,Win32,60.74965069
space,0.79584,space,0.850535,,,ms_small,0,186,186,186,1,0.741,0.1,False,None,Z02,r1,2021-05-06_16h11.35.709,subsecond_timing_v2,2021.1.2,Win32,60.74965069
space,1.16763,space,0.726405,,,ms_small,0,187,187,187,1,0.776,0.3,False,None,Z02,r1,2021-05-06_16h11.35.709,subsecond_timing_v2,2021.1.2,Win32,60.74965069
space,1.026135,space,0.79074,,,ms_small,0,188,188,188,1,0.812,0.3,False,None,Z02,r1,2021-05-06_16h11.35.709,subsecond_timing_v2,2021.1.2,Win32,60.74965069
space,0.88648,space,0.725085,,,ms_small,0,189,189,189,1,0.918,0.3,False,None,Z02,r1,2021-05-06_16h11.35.709,subsecond_timing_v2,2021.1.2,Win32,60.74965069
space,0.955395,space,0.818285,,,ms_small,0,190,190,190,1,0.67,0.1,False,None,Z02,r1,2021-05-06_16h11.35.709,subsecond_timing_v2,2021.1.2,Win32,60.74965069
space,0.84327,space,0.77545,,,ms_small,0,191,191,191,1,0.882,0.2,False,None,Z02,r1,2021-05-06_16h11.35.709,subsecond_timing_v2,2021.1.2,Win32,60.74965069
space,0.5854,space,0.695115,,,ms_small,0,192,192,192,1,0.953,0.1,False,None,Z02,r1,2021-05-06_16h11.35.709,subsecond_timing_v2,2021.1.2,Win32,60.74965069
space,0.903795,space,0.78583,,,ms_small,0,193,193,193,1,0.776,0.1,False,None,Z02,r1,2021-05-06_16h11.35.709,subsecond_timing_v2,2021.1.2,Win32,60.74965069
space,0.988175,space,0.789515,,,ms_small,0,194,194,194,1,0.988,0.3,False,None,Z02,r1,2021-05-06_16h11.35.709,subsecond_timing_v2,2021.1.2,Win32,60.74965069
space,0.93728,space,0.83964,,,ms_small,0,195,195,195,1,0.953,0.1,False,None,Z02,r1,2021-05-06_16h11.35.709,subsecond_timing_v2,2021.1.2,Win32,60.74965069
space,1.01933,space,0.792675,,,ms_small,0,196,196,196,1,0.741,0.3,False,None,Z02,r1,2021-05-06_16h11.35.709,subsecond_timing_v2,2021.1.2,Win32,60.74965069
space,0.90228,space,0.927435,,,ms_small,0,197,197,197,1,0.67,0.3,False,None,Z02,r1,2021-05-06_16h11.35.709,subsecond_timing_v2,2021.1.2,Win32,60.74965069
space,1.135475,space,0.93096,,,ms_small,0,198,198,198,1,0.847,0.3,False,None,Z02,r1,2021-05-06_16h11.35.709,subsecond_timing_v2,2021.1.2,Win32,60.74965069
space,0.66444,space,0.80529,,,ms_small,0,199,199,199,1,0.882,0.2,False,None,Z02,r1,2021-05-06_16h11.35.709,subsecond_timing_v2,2021.1.2,Win32,60.74965069
space,0.13718,space,0.85156,,,ms_small,0,200,200,200,1,0.706,0.3,False,None,Z02,r1,2021-05-06_16h11.35.709,subsecond_timing_v2,2021.1.2,Win32,60.74965069
space,0.78908,space,0.843815,,,ms_small,0,201,201,201,1,0.812,0.1,False,None,Z02,r1,2021-05-06_16h11.35.709,subsecond_timing_v2,2021.1.2,Win32,60.74965069
space,0.809485,space,0.80739,,,ms_small,0,202,202,202,1,1.024,0.2,False,None,Z02,r1,2021-05-06_16h11.35.709,subsecond_timing_v2,2021.1.2,Win32,60.74965069
space,0.943305,space,0.835635,,,ms_small,0,203,203,203,1,0.918,0.1,False,None,Z02,r1,2021-05-06_16h11.35.709,subsecond_timing_v2,2021.1.2,Win32,60.74965069
space,1.20238,space,1.149835,,,ms_small,0,204,204,204,1,0.776,0.2,False,None,Z02,r1,2021-05-06_16h11.35.709,subsecond_timing_v2,2021.1.2,Win32,60.74965069
space,0.91854,space,0.828245,,,ms_small,0,205,205,205,1,0.67,0.1,False,None,Z02,r1,2021-05-06_16h11.35.709,subsecond_timing_v2,2021.1.2,Win32,60.74965069
space,0.597645,space,0.467555,,,ms_small,0,206,206,206,1,0.706,0.3,False,None,Z02,r1,2021-05-06_16h11.35.709,subsecond_timing_v2,2021.1.2,Win32,60.74965069
space,0.4358,space,0.88441,,,ms_small,0,207,207,207,1,0.988,0.2,False,None,Z02,r1,2021-05-06_16h11.35.709,subsecond_timing_v2,2021.1.2,Win32,60.74965069
space,0.62003,space,0.600395,,,ms_small,0,208,208,208,1,0.847,0.3,False,None,Z02,r1,2021-05-06_16h11.35.709,subsecond_timing_v2,2021.1.2,Win32,60.74965069
space,0.77164,space,0.57051,,,ms_small,0,209,209,209,1,0.953,0.2,False,None,Z02,r1,2021-05-06_16h11.35.709,subsecond_timing_v2,2021.1.2,Win32,60.74965069
space,0.853935,space,0.72486,,,ms_small,0,210,210,210,1,0.812,0.1,False,None,Z02,r1,2021-05-06_16h11.35.709,subsecond_timing_v2,2021.1.2,Win32,60.74965069
space,0.63035,space,0.59236,,,ms_small,0,211,211,211,1,0.918,0.1,False,None,Z02,r1,2021-05-06_16h11.35.709,subsecond_timing_v2,2021.1.2,Win32,60.74965069
space,0.59373,space,0.7961,,,ms_small,0,212,212,212,1,0.741,0.3,False,None,Z02,r1,2021-05-06_16h11.35.709,subsecond_timing_v2,2021.1.2,Win32,60.74965069
space,0.584795,space,0.935655,,,ms_small,0,213,213,213,1,0.882,0.3,False,None,Z02,r1,2021-05-06_16h11.35.709,subsecond_timing_v2,2021.1.2,Win32,60.74965069
space,0.769215,space,1.004415,,,ms_small,0,214,214,214,1,1.024,0.1,False,None,Z02,r1,2021-05-06_16h11.35.709,subsecond_timing_v2,2021.1.2,Win32,60.74965069
space,0.75505,space,0.89341,,,ms_small,0,215,215,215,1,1.024,0.2,False,None,Z02,r1,2021-05-06_16h11.35.709,subsecond_timing_v2,2021.1.2,Win32,60.74965069
space,0.084865,space,0.75503,,,ms_small,0,216,216,216,1,0.706,0.2,False,None,Z02,r1,2021-05-06_16h11.35.709,subsecond_timing_v2,2021.1.2,Win32,60.74965069
space,0.69293,space,0.912625,,,ms_small,0,217,217,217,1,0.882,0.1,False,None,Z02,r1,2021-05-06_16h11.35.709,subsecond_timing_v2,2021.1.2,Win32,60.74965069
space,0.47716,space,0.818815,,,ms_small,0,218,218,218,1,0.776,0.2,False,None,Z02,r1,2021-05-06_16h11.35.709,subsecond_timing_v2,2021.1.2,Win32,60.74965069
space,0.94687,space,0.9727,,,ms_small,0,219,219,219,1,0.847,0.2,False,None,Z02,r1,2021-05-06_16h11.35.709,subsecond_timing_v2,2021.1.2,Win32,60.74965069
space,0.78095,space,0.876975,,,ms_small,0,220,220,220,1,0.812,0.1,False,None,Z02,r1,2021-05-06_16h11.35.709,subsecond_timing_v2,2021.1.2,Win32,60.74965069
space,0.592995,space,1.030215,,,ms_small,0,221,221,221,1,0.988,0.1,False,None,Z02,r1,2021-05-06_16h11.35.709,subsecond_timing_v2,2021.1.2,Win32,60.74965069
space,0.773875,space,0.7511,,,ms_small,0,222,222,222,1,0.918,0.1,False,None,Z02,r1,2021-05-06_16h11.35.709,subsecond_timing_v2,2021.1.2,Win32,60.74965069
space,0.554775,space,0.825545,,,ms_small,0,223,223,223,1,0.67,0.2,False,None,Z02,r1,2021-05-06_16h11.35.709,subsecond_timing_v2,2021.1.2,Win32,60.74965069
space,0.535705,space,0.835435,,,ms_small,0,224,224,224,1,0.741,0.3,False,None,Z02,r1,2021-05-06_16h11.35.709,subsecond_timing_v2,2021.1.2,Win32,60.74965069
space,0.563255,space,0.876825,,,ms_small,0,225,225,225,1,0.953,0.1,False,None,Z02,r1,2021-05-06_16h11.35.709,subsecond_timing_v2,2021.1.2,Win32,60.74965069
