key_resp_start.keys,key_resp_start.rt,key_resp_stop.keys,key_resp_stop.rt,feedback_range,hit,stimulus_range,trials.thisRepN,trials.thisTrialN,trials.thisN,trials.thisIndex,trials.ran,stimulus_duration,onset,feedback,feedback_range_fromfile,participant,session,date,expName,psychopyVersion,OS,frameRate
space,1.632395,space,1.082985,0.3,TRUE,Training,0,0,0,0,1,1,0.3,True,0.3,Z03,r1,2021-04-28_16h20.53.930,subsecond_timing_v2,2021.1.2,Win32,59.94844434
space,1.061205,space,0.82094,0.3,TRUE,Training,0,1,1,1,1,0.75,0.1,True,0.3,Z03,r1,2021-04-28_16h20.53.930,subsecond_timing_v2,2021.1.2,Win32,59.94844434
space,0.923675,space,0.54065,0.3,TRUE,Training,0,2,2,2,1,0.5,0.1,True,0.3,Z03,r1,2021-04-28_16h20.53.930,subsecond_timing_v2,2021.1.2,Win32,59.94844434
space,0.92177,space,0.49959,0.3,TRUE,Training,0,3,3,3,1,0.5,0.2,True,0.3,Z03,r1,2021-04-28_16h20.53.930,subsecond_timing_v2,2021.1.2,Win32,59.94844434
space,0.82816,space,0.546095,0.3,TRUE,Training,0,4,4,4,1,0.75,0.2,True,0.3,Z03,r1,2021-04-28_16h20.53.930,subsecond_timing_v2,2021.1.2,Win32,59.94844434
space,0.852845,space,0.98526,0.3,TRUE,Training,0,5,5,5,1,1,0.3,True,0.3,Z03,r1,2021-04-28_16h20.53.930,subsecond_timing_v2,2021.1.2,Win32,59.94844434
space,0.932515,space,0.665875,,,ms_small,0,6,6,6,1,0.706,0.2,False,None,Z03,r1,2021-04-28_16h20.53.930,subsecond_timing_v2,2021.1.2,Win32,59.94844434
space,0.850255,space,0.696715,,,ms_small,0,7,7,7,1,0.812,0.3,False,None,Z03,r1,2021-04-28_16h20.53.930,subsecond_timing_v2,2021.1.2,Win32,59.94844434
space,0.810815,space,0.67894,,,ms_small,0,8,8,8,1,0.847,0.1,False,None,Z03,r1,2021-04-28_16h20.53.930,subsecond_timing_v2,2021.1.2,Win32,59.94844434
space,0.824395,space,0.622545,,,ms_small,0,9,9,9,1,0.67,0.3,False,None,Z03,r1,2021-04-28_16h20.53.930,subsecond_timing_v2,2021.1.2,Win32,59.94844434
space,0.904885,space,0.952065,,,ms_small,0,10,10,10,1,0.988,0.1,False,None,Z03,r1,2021-04-28_16h20.53.930,subsecond_timing_v2,2021.1.2,Win32,59.94844434
space,1.02081,space,0.935625,,,ms_small,0,11,11,11,1,0.953,0.1,False,None,Z03,r1,2021-04-28_16h20.53.930,subsecond_timing_v2,2021.1.2,Win32,59.94844434
space,0.90336,space,0.93596,,,ms_small,0,12,12,12,1,0.882,0.3,False,None,Z03,r1,2021-04-28_16h20.53.930,subsecond_timing_v2,2021.1.2,Win32,59.94844434
space,1.039085,space,0.90931,,,ms_small,0,13,13,13,1,0.918,0.1,False,None,Z03,r1,2021-04-28_16h20.53.930,subsecond_timing_v2,2021.1.2,Win32,59.94844434
space,0.952025,space,0.835255,,,ms_small,0,14,14,14,1,0.776,0.2,False,None,Z03,r1,2021-04-28_16h20.53.930,subsecond_timing_v2,2021.1.2,Win32,59.94844434
space,0.987185,space,0.868935,,,ms_small,0,15,15,15,1,0.741,0.3,False,None,Z03,r1,2021-04-28_16h20.53.930,subsecond_timing_v2,2021.1.2,Win32,59.94844434
space,0.987685,space,0.950725,,,ms_small,0,16,16,16,1,1.024,0.3,False,None,Z03,r1,2021-04-28_16h20.53.930,subsecond_timing_v2,2021.1.2,Win32,59.94844434
space,0.87418,space,0.70223,,,ms_small,0,17,17,17,1,0.67,0.1,False,None,Z03,r1,2021-04-28_16h20.53.930,subsecond_timing_v2,2021.1.2,Win32,59.94844434
space,0.854245,space,0.869055,,,ms_small,0,18,18,18,1,0.812,0.3,False,None,Z03,r1,2021-04-28_16h20.53.930,subsecond_timing_v2,2021.1.2,Win32,59.94844434
space,0.854815,space,0.80048,,,ms_small,0,19,19,19,1,0.953,0.3,False,None,Z03,r1,2021-04-28_16h20.53.930,subsecond_timing_v2,2021.1.2,Win32,59.94844434
space,0.971255,space,0.90261,,,ms_small,0,20,20,20,1,0.776,0.1,False,None,Z03,r1,2021-04-28_16h20.53.930,subsecond_timing_v2,2021.1.2,Win32,59.94844434
space,0.87062,space,0.901855,,,ms_small,0,21,21,21,1,0.741,0.2,False,None,Z03,r1,2021-04-28_16h20.53.930,subsecond_timing_v2,2021.1.2,Win32,59.94844434
space,0.95411,space,0.831215,,,ms_small,0,22,22,22,1,0.847,0.2,False,None,Z03,r1,2021-04-28_16h20.53.930,subsecond_timing_v2,2021.1.2,Win32,59.94844434
space,0.85603,space,0.900445,,,ms_small,0,23,23,23,1,1.024,0.1,False,None,Z03,r1,2021-04-28_16h20.53.930,subsecond_timing_v2,2021.1.2,Win32,59.94844434
space,1.02623,space,0.935835,,,ms_small,0,24,24,24,1,0.882,0.3,False,None,Z03,r1,2021-04-28_16h20.53.930,subsecond_timing_v2,2021.1.2,Win32,59.94844434
space,0.943765,space,0.910455,,,ms_small,0,25,25,25,1,0.988,0.1,False,None,Z03,r1,2021-04-28_16h20.53.930,subsecond_timing_v2,2021.1.2,Win32,59.94844434
space,0.91996,space,0.8738,,,ms_small,0,26,26,26,1,0.706,0.2,False,None,Z03,r1,2021-04-28_16h20.53.930,subsecond_timing_v2,2021.1.2,Win32,59.94844434
space,1.021565,space,0.841955,,,ms_small,0,27,27,27,1,0.918,0.3,False,None,Z03,r1,2021-04-28_16h20.53.930,subsecond_timing_v2,2021.1.2,Win32,59.94844434
space,0.80684,space,0.63914,,,ms_small,0,28,28,28,1,0.706,0.1,False,None,Z03,r1,2021-04-28_16h20.53.930,subsecond_timing_v2,2021.1.2,Win32,59.94844434
space,0.953095,space,0.950865,,,ms_small,0,29,29,29,1,0.918,0.1,False,None,Z03,r1,2021-04-28_16h20.53.930,subsecond_timing_v2,2021.1.2,Win32,59.94844434
space,0.956365,space,0.801105,,,ms_small,0,30,30,30,1,0.67,0.2,False,None,Z03,r1,2021-04-28_16h20.53.930,subsecond_timing_v2,2021.1.2,Win32,59.94844434
space,0.88538,space,0.83739,,,ms_small,0,31,31,31,1,0.988,0.1,False,None,Z03,r1,2021-04-28_16h20.53.930,subsecond_timing_v2,2021.1.2,Win32,59.94844434
space,0.905135,space,0.838185,,,ms_small,0,32,32,32,1,0.953,0.2,False,None,Z03,r1,2021-04-28_16h20.53.930,subsecond_timing_v2,2021.1.2,Win32,59.94844434
space,0.986095,space,0.85094,,,ms_small,0,33,33,33,1,0.776,0.1,False,None,Z03,r1,2021-04-28_16h20.53.930,subsecond_timing_v2,2021.1.2,Win32,59.94844434
space,0.904145,space,0.750235,,,ms_small,0,34,34,34,1,0.847,0.1,False,None,Z03,r1,2021-04-28_16h20.53.930,subsecond_timing_v2,2021.1.2,Win32,59.94844434
space,0.951385,space,0.818715,,,ms_small,0,35,35,35,1,0.741,0.2,False,None,Z03,r1,2021-04-28_16h20.53.930,subsecond_timing_v2,2021.1.2,Win32,59.94844434
space,1.018615,space,0.81676,,,ms_small,0,36,36,36,1,0.812,0.1,False,None,Z03,r1,2021-04-28_16h20.53.930,subsecond_timing_v2,2021.1.2,Win32,59.94844434
space,0.888515,space,0.851685,,,ms_small,0,37,37,37,1,0.882,0.1,False,None,Z03,r1,2021-04-28_16h20.53.930,subsecond_timing_v2,2021.1.2,Win32,59.94844434
space,0.863585,space,0.834555,,,ms_small,0,38,38,38,1,1.024,0.3,False,None,Z03,r1,2021-04-28_16h20.53.930,subsecond_timing_v2,2021.1.2,Win32,59.94844434
space,1.004075,space,0.893215,,,ms_small,0,39,39,39,1,0.847,0.2,False,None,Z03,r1,2021-04-28_16h20.53.930,subsecond_timing_v2,2021.1.2,Win32,59.94844434
space,0.92201,space,0.88599,,,ms_small,0,40,40,40,1,0.918,0.2,False,None,Z03,r1,2021-04-28_16h20.53.930,subsecond_timing_v2,2021.1.2,Win32,59.94844434
space,0.968975,space,0.867705,,,ms_small,0,41,41,41,1,0.953,0.1,False,None,Z03,r1,2021-04-28_16h20.53.930,subsecond_timing_v2,2021.1.2,Win32,59.94844434
space,1.00446,space,0.908805,,,ms_small,0,42,42,42,1,0.882,0.3,False,None,Z03,r1,2021-04-28_16h20.53.930,subsecond_timing_v2,2021.1.2,Win32,59.94844434
space,1.040345,space,0.82236,,,ms_small,0,43,43,43,1,0.741,0.2,False,None,Z03,r1,2021-04-28_16h20.53.930,subsecond_timing_v2,2021.1.2,Win32,59.94844434
space,1.02257,space,0.867455,,,ms_small,0,44,44,44,1,0.67,0.3,False,None,Z03,r1,2021-04-28_16h20.53.930,subsecond_timing_v2,2021.1.2,Win32,59.94844434
space,0.953625,space,0.742155,,,ms_small,0,45,45,45,1,0.812,0.2,False,None,Z03,r1,2021-04-28_16h20.53.930,subsecond_timing_v2,2021.1.2,Win32,59.94844434
space,0.989005,space,0.904805,,,ms_small,0,46,46,46,1,1.024,0.3,False,None,Z03,r1,2021-04-28_16h20.53.930,subsecond_timing_v2,2021.1.2,Win32,59.94844434
space,1.14217,space,0.7845,,,ms_small,0,47,47,47,1,0.706,0.3,False,None,Z03,r1,2021-04-28_16h20.53.930,subsecond_timing_v2,2021.1.2,Win32,59.94844434
space,0.986455,space,0.755215,,,ms_small,0,48,48,48,1,0.988,0.2,False,None,Z03,r1,2021-04-28_16h20.53.930,subsecond_timing_v2,2021.1.2,Win32,59.94844434
space,1.002945,space,0.784255,,,ms_small,0,49,49,49,1,0.776,0.1,False,None,Z03,r1,2021-04-28_16h20.53.930,subsecond_timing_v2,2021.1.2,Win32,59.94844434
space,1.04263,space,1.083985,,,ms_small,0,50,50,50,1,0.988,0.1,False,None,Z03,r1,2021-04-28_16h20.53.930,subsecond_timing_v2,2021.1.2,Win32,59.94844434
space,0.89449,space,0.760365,,,ms_small,0,51,51,51,1,0.706,0.3,False,None,Z03,r1,2021-04-28_16h20.53.930,subsecond_timing_v2,2021.1.2,Win32,59.94844434
space,0.92829,space,0.953655,,,ms_small,0,52,52,52,1,0.953,0.2,False,None,Z03,r1,2021-04-28_16h20.53.930,subsecond_timing_v2,2021.1.2,Win32,59.94844434
space,1.03679,space,0.79236,,,ms_small,0,53,53,53,1,0.847,0.2,False,None,Z03,r1,2021-04-28_16h20.53.930,subsecond_timing_v2,2021.1.2,Win32,59.94844434
space,1.05236,space,0.959945,,,ms_small,0,54,54,54,1,0.918,0.3,False,None,Z03,r1,2021-04-28_16h20.53.930,subsecond_timing_v2,2021.1.2,Win32,59.94844434
space,0.977335,space,0.515595,,,ms_small,0,55,55,55,1,0.741,0.1,False,None,Z03,r1,2021-04-28_16h20.53.930,subsecond_timing_v2,2021.1.2,Win32,59.94844434
space,0.707785,space,0.518545,,,ms_small,0,56,56,56,1,0.67,0.1,False,None,Z03,r1,2021-04-28_16h20.53.930,subsecond_timing_v2,2021.1.2,Win32,59.94844434
space,0.88773,space,0.63495,,,ms_small,0,57,57,57,1,0.776,0.2,False,None,Z03,r1,2021-04-28_16h20.53.930,subsecond_timing_v2,2021.1.2,Win32,59.94844434
space,0.853645,space,0.66939,,,ms_small,0,58,58,58,1,0.882,0.1,False,None,Z03,r1,2021-04-28_16h20.53.930,subsecond_timing_v2,2021.1.2,Win32,59.94844434
space,0.895285,space,0.750485,,,ms_small,0,59,59,59,1,0.812,0.2,False,None,Z03,r1,2021-04-28_16h20.53.930,subsecond_timing_v2,2021.1.2,Win32,59.94844434
space,0.811575,space,1.119135,,,ms_small,0,60,60,60,1,1.024,0.2,False,None,Z03,r1,2021-04-28_16h20.53.930,subsecond_timing_v2,2021.1.2,Win32,59.94844434
space,0.886355,space,0.86633,,,ms_small,0,61,61,61,1,0.847,0.3,False,None,Z03,r1,2021-04-28_16h20.53.930,subsecond_timing_v2,2021.1.2,Win32,59.94844434
space,0.95473,space,0.4848,,,ms_small,0,62,62,62,1,0.67,0.1,False,None,Z03,r1,2021-04-28_16h20.53.930,subsecond_timing_v2,2021.1.2,Win32,59.94844434
space,0.90435,space,0.908395,,,ms_small,0,63,63,63,1,0.988,0.3,False,None,Z03,r1,2021-04-28_16h20.53.930,subsecond_timing_v2,2021.1.2,Win32,59.94844434
space,1.02113,space,0.799415,,,ms_small,0,64,64,64,1,0.812,0.1,False,None,Z03,r1,2021-04-28_16h20.53.930,subsecond_timing_v2,2021.1.2,Win32,59.94844434
space,1.11075,space,1.05212,,,ms_small,0,65,65,65,1,0.882,0.3,False,None,Z03,r1,2021-04-28_16h20.53.930,subsecond_timing_v2,2021.1.2,Win32,59.94844434
space,1.15426,space,0.941495,,,ms_small,0,66,66,66,1,0.918,0.1,False,None,Z03,r1,2021-04-28_16h20.53.930,subsecond_timing_v2,2021.1.2,Win32,59.94844434
space,0.88598,space,0.855605,,,ms_small,0,67,67,67,1,1.024,0.1,False,None,Z03,r1,2021-04-28_16h20.53.930,subsecond_timing_v2,2021.1.2,Win32,59.94844434
space,0.98739,space,0.82,,,ms_small,0,68,68,68,1,0.776,0.2,False,None,Z03,r1,2021-04-28_16h20.53.930,subsecond_timing_v2,2021.1.2,Win32,59.94844434
space,0.821405,space,0.8507,,,ms_small,0,69,69,69,1,0.953,0.1,False,None,Z03,r1,2021-04-28_16h20.53.930,subsecond_timing_v2,2021.1.2,Win32,59.94844434
space,0.970115,space,0.751645,,,ms_small,0,70,70,70,1,0.706,0.1,False,None,Z03,r1,2021-04-28_16h20.53.930,subsecond_timing_v2,2021.1.2,Win32,59.94844434
space,0.836585,space,0.783845,,,ms_small,0,71,71,71,1,0.741,0.3,False,None,Z03,r1,2021-04-28_16h20.53.930,subsecond_timing_v2,2021.1.2,Win32,59.94844434
space,0.78551,space,0.921405,,,ms_small,0,72,72,72,1,0.882,0.2,False,None,Z03,r1,2021-04-28_16h20.53.930,subsecond_timing_v2,2021.1.2,Win32,59.94844434
space,0.84041,space,0.767975,,,ms_small,0,73,73,73,1,0.918,0.3,False,None,Z03,r1,2021-04-28_16h20.53.930,subsecond_timing_v2,2021.1.2,Win32,59.94844434
space,0.744155,space,0.873005,,,ms_small,0,74,74,74,1,0.988,0.2,False,None,Z03,r1,2021-04-28_16h20.53.930,subsecond_timing_v2,2021.1.2,Win32,59.94844434
space,1.136875,space,0.61949,,,ms_small,0,75,75,75,1,0.67,0.1,False,None,Z03,r1,2021-04-28_16h20.53.930,subsecond_timing_v2,2021.1.2,Win32,59.94844434
space,0.854135,space,0.76918,,,ms_small,0,76,76,76,1,0.776,0.3,False,None,Z03,r1,2021-04-28_16h20.53.930,subsecond_timing_v2,2021.1.2,Win32,59.94844434
space,0.78738,space,0.76796,,,ms_small,0,77,77,77,1,0.847,0.2,False,None,Z03,r1,2021-04-28_16h20.53.930,subsecond_timing_v2,2021.1.2,Win32,59.94844434
space,0.73643,space,0.96754,,,ms_small,0,78,78,78,1,1.024,0.2,False,None,Z03,r1,2021-04-28_16h20.53.930,subsecond_timing_v2,2021.1.2,Win32,59.94844434
space,0.804135,space,0.817905,,,ms_small,0,79,79,79,1,0.812,0.3,False,None,Z03,r1,2021-04-28_16h20.53.930,subsecond_timing_v2,2021.1.2,Win32,59.94844434
space,0.87513,space,0.80477,,,ms_small,0,80,80,80,1,0.953,0.1,False,None,Z03,r1,2021-04-28_16h20.53.930,subsecond_timing_v2,2021.1.2,Win32,59.94844434
space,0.90229,space,0.75448,,,ms_small,0,81,81,81,1,0.706,0.2,False,None,Z03,r1,2021-04-28_16h20.53.930,subsecond_timing_v2,2021.1.2,Win32,59.94844434
space,0.842875,space,0.834,,,ms_small,0,82,82,82,1,0.741,0.3,False,None,Z03,r1,2021-04-28_16h20.53.930,subsecond_timing_v2,2021.1.2,Win32,59.94844434
space,0.943555,space,0.60205,,,ms_small,0,83,83,83,1,0.706,0.1,False,None,Z03,r1,2021-04-28_16h20.53.930,subsecond_timing_v2,2021.1.2,Win32,59.94844434
space,0.84644,space,0.75115,,,ms_small,0,84,84,84,1,0.812,0.2,False,None,Z03,r1,2021-04-28_16h20.53.930,subsecond_timing_v2,2021.1.2,Win32,59.94844434
space,0.721795,space,0.73381,,,ms_small,0,85,85,85,1,0.882,0.2,False,None,Z03,r1,2021-04-28_16h20.53.930,subsecond_timing_v2,2021.1.2,Win32,59.94844434
space,0.79294,space,0.75331,,,ms_small,0,86,86,86,1,0.776,0.1,False,None,Z03,r1,2021-04-28_16h20.53.930,subsecond_timing_v2,2021.1.2,Win32,59.94844434
space,0.60275,space,1.050995,,,ms_small,0,87,87,87,1,0.988,0.3,False,None,Z03,r1,2021-04-28_16h20.53.930,subsecond_timing_v2,2021.1.2,Win32,59.94844434
space,0.80383,space,0.76041,,,ms_small,0,88,88,88,1,0.67,0.2,False,None,Z03,r1,2021-04-28_16h20.53.930,subsecond_timing_v2,2021.1.2,Win32,59.94844434
space,0.821835,space,0.869335,,,ms_small,0,89,89,89,1,0.741,0.3,False,None,Z03,r1,2021-04-28_16h20.53.930,subsecond_timing_v2,2021.1.2,Win32,59.94844434
space,0.969685,space,0.939895,,,ms_small,0,90,90,90,1,0.918,0.1,False,None,Z03,r1,2021-04-28_16h20.53.930,subsecond_timing_v2,2021.1.2,Win32,59.94844434
space,0.771515,space,0.88713,,,ms_small,0,91,91,91,1,0.847,0.3,False,None,Z03,r1,2021-04-28_16h20.53.930,subsecond_timing_v2,2021.1.2,Win32,59.94844434
space,0.87081,space,0.918925,,,ms_small,0,92,92,92,1,0.953,0.2,False,None,Z03,r1,2021-04-28_16h20.53.930,subsecond_timing_v2,2021.1.2,Win32,59.94844434
space,0.886265,space,1.05296,,,ms_small,0,93,93,93,1,1.024,0.2,False,None,Z03,r1,2021-04-28_16h20.53.930,subsecond_timing_v2,2021.1.2,Win32,59.94844434
space,0.842905,space,0.94231,,,ms_small,0,94,94,94,1,0.882,0.1,False,None,Z03,r1,2021-04-28_16h20.53.930,subsecond_timing_v2,2021.1.2,Win32,59.94844434
space,0.990735,space,0.61737,,,ms_small,0,95,95,95,1,0.67,0.2,False,None,Z03,r1,2021-04-28_16h20.53.930,subsecond_timing_v2,2021.1.2,Win32,59.94844434
space,0.859575,space,0.852535,,,ms_small,0,96,96,96,1,0.918,0.3,False,None,Z03,r1,2021-04-28_16h20.53.930,subsecond_timing_v2,2021.1.2,Win32,59.94844434
space,0.92046,space,0.693405,,,ms_small,0,97,97,97,1,0.706,0.2,False,None,Z03,r1,2021-04-28_16h20.53.930,subsecond_timing_v2,2021.1.2,Win32,59.94844434
space,0.706265,space,1.156005,,,ms_small,0,98,98,98,1,0.988,0.1,False,None,Z03,r1,2021-04-28_16h20.53.930,subsecond_timing_v2,2021.1.2,Win32,59.94844434
space,0.79136,space,0.76773,,,ms_small,0,99,99,99,1,0.741,0.3,False,None,Z03,r1,2021-04-28_16h20.53.930,subsecond_timing_v2,2021.1.2,Win32,59.94844434
space,0.82927,space,0.9762,,,ms_small,0,100,100,100,1,1.024,0.2,False,None,Z03,r1,2021-04-28_16h20.53.930,subsecond_timing_v2,2021.1.2,Win32,59.94844434
space,0.83909,space,0.818365,,,ms_small,0,101,101,101,1,0.776,0.2,False,None,Z03,r1,2021-04-28_16h20.53.930,subsecond_timing_v2,2021.1.2,Win32,59.94844434
space,0.88759,space,0.76694,,,ms_small,0,102,102,102,1,0.812,0.2,False,None,Z03,r1,2021-04-28_16h20.53.930,subsecond_timing_v2,2021.1.2,Win32,59.94844434
space,0.75648,space,0.93574,,,ms_small,0,103,103,103,1,0.953,0.2,False,None,Z03,r1,2021-04-28_16h20.53.930,subsecond_timing_v2,2021.1.2,Win32,59.94844434
space,0.98947,space,0.92454,,,ms_small,0,104,104,104,1,0.847,0.1,False,None,Z03,r1,2021-04-28_16h20.53.930,subsecond_timing_v2,2021.1.2,Win32,59.94844434
space,0.97917,space,0.750985,,,ms_small,0,105,105,105,1,0.706,0.2,False,None,Z03,r1,2021-04-28_16h20.53.930,subsecond_timing_v2,2021.1.2,Win32,59.94844434
space,0.95324,space,0.78829,,,ms_small,0,106,106,106,1,0.741,0.1,False,None,Z03,r1,2021-04-28_16h20.53.930,subsecond_timing_v2,2021.1.2,Win32,59.94844434
space,0.99183,space,0.713355,,,ms_small,0,107,107,107,1,0.67,0.1,False,None,Z03,r1,2021-04-28_16h20.53.930,subsecond_timing_v2,2021.1.2,Win32,59.94844434
space,0.80955,space,0.769,,,ms_small,0,108,108,108,1,0.847,0.1,False,None,Z03,r1,2021-04-28_16h20.53.930,subsecond_timing_v2,2021.1.2,Win32,59.94844434
space,0.85378,space,0.68328,,,ms_small,0,109,109,109,1,0.812,0.2,False,None,Z03,r1,2021-04-28_16h20.53.930,subsecond_timing_v2,2021.1.2,Win32,59.94844434
space,0.936375,space,0.783925,,,ms_small,0,110,110,110,1,0.776,0.3,False,None,Z03,r1,2021-04-28_16h20.53.930,subsecond_timing_v2,2021.1.2,Win32,59.94844434
space,0.62809,space,0.7189,,,ms_small,0,111,111,111,1,0.988,0.3,False,None,Z03,r1,2021-04-28_16h20.53.930,subsecond_timing_v2,2021.1.2,Win32,59.94844434
space,0.75799,space,0.850715,,,ms_small,0,112,112,112,1,0.918,0.1,False,None,Z03,r1,2021-04-28_16h20.53.930,subsecond_timing_v2,2021.1.2,Win32,59.94844434
space,0.771405,space,0.734515,,,ms_small,0,113,113,113,1,0.882,0.1,False,None,Z03,r1,2021-04-28_16h20.53.930,subsecond_timing_v2,2021.1.2,Win32,59.94844434
space,0.78538,space,0.97269,,,ms_small,0,114,114,114,1,1.024,0.2,False,None,Z03,r1,2021-04-28_16h20.53.930,subsecond_timing_v2,2021.1.2,Win32,59.94844434
space,0.770175,space,0.91638,,,ms_small,0,115,115,115,1,0.953,0.2,False,None,Z03,r1,2021-04-28_16h20.53.930,subsecond_timing_v2,2021.1.2,Win32,59.94844434
space,0.885395,space,0.810295,,,ms_small,0,116,116,116,1,0.847,0.3,False,None,Z03,r1,2021-04-28_16h20.53.930,subsecond_timing_v2,2021.1.2,Win32,59.94844434
space,0.852825,space,0.75334,,,ms_small,0,117,117,117,1,0.882,0.2,False,None,Z03,r1,2021-04-28_16h20.53.930,subsecond_timing_v2,2021.1.2,Win32,59.94844434
space,0.70409,space,0.95019,,,ms_small,0,118,118,118,1,1.024,0.1,False,None,Z03,r1,2021-04-28_16h20.53.930,subsecond_timing_v2,2021.1.2,Win32,59.94844434
space,0.88594,space,0.783665,,,ms_small,0,119,119,119,1,0.706,0.2,False,None,Z03,r1,2021-04-28_16h20.53.930,subsecond_timing_v2,2021.1.2,Win32,59.94844434
space,0.72861,space,0.731125,,,ms_small,0,120,120,120,1,0.918,0.1,False,None,Z03,r1,2021-04-28_16h20.53.930,subsecond_timing_v2,2021.1.2,Win32,59.94844434
space,0.798825,space,0.74029,,,ms_small,0,121,121,121,1,0.776,0.1,False,None,Z03,r1,2021-04-28_16h20.53.930,subsecond_timing_v2,2021.1.2,Win32,59.94844434
space,0.70879,space,0.73699,,,ms_small,0,122,122,122,1,0.953,0.3,False,None,Z03,r1,2021-04-28_16h20.53.930,subsecond_timing_v2,2021.1.2,Win32,59.94844434
space,0.872835,space,0.65192,,,ms_small,0,123,123,123,1,0.67,0.1,False,None,Z03,r1,2021-04-28_16h20.53.930,subsecond_timing_v2,2021.1.2,Win32,59.94844434
space,0.68615,space,0.7909,,,ms_small,0,124,124,124,1,0.812,0.2,False,None,Z03,r1,2021-04-28_16h20.53.930,subsecond_timing_v2,2021.1.2,Win32,59.94844434
space,0.692345,space,1.05182,,,ms_small,0,125,125,125,1,0.988,0.2,False,None,Z03,r1,2021-04-28_16h20.53.930,subsecond_timing_v2,2021.1.2,Win32,59.94844434
space,0.853685,space,0.72358,,,ms_small,0,126,126,126,1,0.741,0.3,False,None,Z03,r1,2021-04-28_16h20.53.930,subsecond_timing_v2,2021.1.2,Win32,59.94844434
space,0.891885,space,0.63647,,,ms_small,0,127,127,127,1,0.67,0.1,False,None,Z03,r1,2021-04-28_16h20.53.930,subsecond_timing_v2,2021.1.2,Win32,59.94844434
space,0.743415,space,0.72094,,,ms_small,0,128,128,128,1,0.776,0.3,False,None,Z03,r1,2021-04-28_16h20.53.930,subsecond_timing_v2,2021.1.2,Win32,59.94844434
space,0.75475,space,0.734335,,,ms_small,0,129,129,129,1,0.847,0.1,False,None,Z03,r1,2021-04-28_16h20.53.930,subsecond_timing_v2,2021.1.2,Win32,59.94844434
space,0.79407,space,0.72247,,,ms_small,0,130,130,130,1,0.812,0.1,False,None,Z03,r1,2021-04-28_16h20.53.930,subsecond_timing_v2,2021.1.2,Win32,59.94844434
space,0.69088,space,0.72278,,,ms_small,0,131,131,131,1,0.882,0.1,False,None,Z03,r1,2021-04-28_16h20.53.930,subsecond_timing_v2,2021.1.2,Win32,59.94844434
space,0.754875,space,0.93532,,,ms_small,0,132,132,132,1,1.024,0.2,False,None,Z03,r1,2021-04-28_16h20.53.930,subsecond_timing_v2,2021.1.2,Win32,59.94844434
space,0.68686,space,0.75528,,,ms_small,0,133,133,133,1,0.953,0.3,False,None,Z03,r1,2021-04-28_16h20.53.930,subsecond_timing_v2,2021.1.2,Win32,59.94844434
space,0.72057,space,0.753735,,,ms_small,0,134,134,134,1,0.988,0.2,False,None,Z03,r1,2021-04-28_16h20.53.930,subsecond_timing_v2,2021.1.2,Win32,59.94844434
space,0.95297,space,0.73575,,,ms_small,0,135,135,135,1,0.706,0.1,False,None,Z03,r1,2021-04-28_16h20.53.930,subsecond_timing_v2,2021.1.2,Win32,59.94844434
space,0.70292,space,0.73441,,,ms_small,0,136,136,136,1,0.918,0.1,False,None,Z03,r1,2021-04-28_16h20.53.930,subsecond_timing_v2,2021.1.2,Win32,59.94844434
space,0.904365,space,0.685875,,,ms_small,0,137,137,137,1,0.741,0.1,False,None,Z03,r1,2021-04-28_16h20.53.930,subsecond_timing_v2,2021.1.2,Win32,59.94844434
space,0.775915,space,0.772635,,,ms_small,0,138,138,138,1,0.741,0.3,False,None,Z03,r1,2021-04-28_16h20.53.930,subsecond_timing_v2,2021.1.2,Win32,59.94844434
space,0.669835,space,1.00076,,,ms_small,0,139,139,139,1,0.988,0.2,False,None,Z03,r1,2021-04-28_16h20.53.930,subsecond_timing_v2,2021.1.2,Win32,59.94844434
space,0.845895,space,0.764135,,,ms_small,0,140,140,140,1,0.812,0.3,False,None,Z03,r1,2021-04-28_16h20.53.930,subsecond_timing_v2,2021.1.2,Win32,59.94844434
space,0.736795,space,0.818215,,,ms_small,0,141,141,141,1,0.918,0.2,False,None,Z03,r1,2021-04-28_16h20.53.930,subsecond_timing_v2,2021.1.2,Win32,59.94844434
space,0.81912,space,0.75222,,,ms_small,0,142,142,142,1,0.847,0.2,False,None,Z03,r1,2021-04-28_16h20.53.930,subsecond_timing_v2,2021.1.2,Win32,59.94844434
space,0.70584,space,0.768095,,,ms_small,0,143,143,143,1,0.953,0.1,False,None,Z03,r1,2021-04-28_16h20.53.930,subsecond_timing_v2,2021.1.2,Win32,59.94844434
space,0.823805,space,0.735325,,,ms_small,0,144,144,144,1,0.776,0.3,False,None,Z03,r1,2021-04-28_16h20.53.930,subsecond_timing_v2,2021.1.2,Win32,59.94844434
space,0.952695,space,0.76894,,,ms_small,0,145,145,145,1,0.706,0.3,False,None,Z03,r1,2021-04-28_16h20.53.930,subsecond_timing_v2,2021.1.2,Win32,59.94844434
space,0.703265,space,0.786545,,,ms_small,0,146,146,146,1,1.024,0.1,False,None,Z03,r1,2021-04-28_16h20.53.930,subsecond_timing_v2,2021.1.2,Win32,59.94844434
space,0.819875,space,0.76752,,,ms_small,0,147,147,147,1,0.882,0.2,False,None,Z03,r1,2021-04-28_16h20.53.930,subsecond_timing_v2,2021.1.2,Win32,59.94844434
space,0.95661,space,0.800955,,,ms_small,0,148,148,148,1,0.67,0.3,False,None,Z03,r1,2021-04-28_16h20.53.930,subsecond_timing_v2,2021.1.2,Win32,59.94844434
space,0.15322,space,1.026315,,,ms_small,0,149,149,149,1,0.67,0.3,False,None,Z03,r1,2021-04-28_16h20.53.930,subsecond_timing_v2,2021.1.2,Win32,59.94844434
space,0.89301,space,0.75311,,,ms_small,0,150,150,150,1,0.741,0.3,False,None,Z03,r1,2021-04-28_16h20.53.930,subsecond_timing_v2,2021.1.2,Win32,59.94844434
space,0.787655,space,0.76692,,,ms_small,0,151,151,151,1,0.918,0.1,False,None,Z03,r1,2021-04-28_16h20.53.930,subsecond_timing_v2,2021.1.2,Win32,59.94844434
space,0.840565,space,0.740005,,,ms_small,0,152,152,152,1,0.706,0.3,False,None,Z03,r1,2021-04-28_16h20.53.930,subsecond_timing_v2,2021.1.2,Win32,59.94844434
space,0.709565,space,0.9094,,,ms_small,0,153,153,153,1,0.988,0.2,False,None,Z03,r1,2021-04-28_16h20.53.930,subsecond_timing_v2,2021.1.2,Win32,59.94844434
space,0.854145,space,0.838425,,,ms_small,0,154,154,154,1,0.847,0.2,False,None,Z03,r1,2021-04-28_16h20.53.930,subsecond_timing_v2,2021.1.2,Win32,59.94844434
space,0.907115,space,0.8184,,,ms_small,0,155,155,155,1,0.776,0.3,False,None,Z03,r1,2021-04-28_16h20.53.930,subsecond_timing_v2,2021.1.2,Win32,59.94844434
space,0.87691,space,0.89358,,,ms_small,0,156,156,156,1,0.882,0.2,False,None,Z03,r1,2021-04-28_16h20.53.930,subsecond_timing_v2,2021.1.2,Win32,59.94844434
space,0.975385,space,0.90021,,,ms_small,0,157,157,157,1,0.812,0.1,False,None,Z03,r1,2021-04-28_16h20.53.930,subsecond_timing_v2,2021.1.2,Win32,59.94844434
space,0.657765,space,0.92088,,,ms_small,0,158,158,158,1,1.024,0.1,False,None,Z03,r1,2021-04-28_16h20.53.930,subsecond_timing_v2,2021.1.2,Win32,59.94844434
space,0.736075,space,0.918275,,,ms_small,0,159,159,159,1,0.953,0.2,False,None,Z03,r1,2021-04-28_16h20.53.930,subsecond_timing_v2,2021.1.2,Win32,59.94844434
space,0.955835,space,0.835355,,,ms_small,0,160,160,160,1,0.812,0.2,False,None,Z03,r1,2021-04-28_16h20.53.930,subsecond_timing_v2,2021.1.2,Win32,59.94844434
space,0.971405,space,0.57736,,,ms_small,0,161,161,161,1,0.67,0.1,False,None,Z03,r1,2021-04-28_16h20.53.930,subsecond_timing_v2,2021.1.2,Win32,59.94844434
space,0.788745,space,0.702905,,,ms_small,0,162,162,162,1,0.953,0.1,False,None,Z03,r1,2021-04-28_16h20.53.930,subsecond_timing_v2,2021.1.2,Win32,59.94844434
space,0.72516,space,0.756175,,,ms_small,0,163,163,163,1,0.882,0.3,False,None,Z03,r1,2021-04-28_16h20.53.930,subsecond_timing_v2,2021.1.2,Win32,59.94844434
space,0.745315,space,0.8552,,,ms_small,0,164,164,164,1,0.988,0.1,False,None,Z03,r1,2021-04-28_16h20.53.930,subsecond_timing_v2,2021.1.2,Win32,59.94844434
space,0.869095,space,0.716825,,,ms_small,0,165,165,165,1,0.706,0.1,False,None,Z03,r1,2021-04-28_16h20.53.930,subsecond_timing_v2,2021.1.2,Win32,59.94844434
space,0.637415,space,1.041545,,,ms_small,0,166,166,166,1,1.024,0.3,False,None,Z03,r1,2021-04-28_16h20.53.930,subsecond_timing_v2,2021.1.2,Win32,59.94844434
space,0.77124,space,0.804325,,,ms_small,0,167,167,167,1,0.847,0.3,False,None,Z03,r1,2021-04-28_16h20.53.930,subsecond_timing_v2,2021.1.2,Win32,59.94844434
space,0.98857,space,0.66912,,,ms_small,0,168,168,168,1,0.741,0.3,False,None,Z03,r1,2021-04-28_16h20.53.930,subsecond_timing_v2,2021.1.2,Win32,59.94844434
space,0.858065,space,0.68999,,,ms_small,0,169,169,169,1,0.918,0.2,False,None,Z03,r1,2021-04-28_16h20.53.930,subsecond_timing_v2,2021.1.2,Win32,59.94844434
space,0.940245,space,0.722945,,,ms_small,0,170,170,170,1,0.776,0.1,False,None,Z03,r1,2021-04-28_16h20.53.930,subsecond_timing_v2,2021.1.2,Win32,59.94844434
space,0.82145,space,0.77452,,,ms_small,0,171,171,171,1,0.882,0.3,False,None,Z03,r1,2021-04-28_16h20.53.930,subsecond_timing_v2,2021.1.2,Win32,59.94844434
space,0.945515,space,0.74192,,,ms_small,0,172,172,172,1,0.741,0.1,False,None,Z03,r1,2021-04-28_16h20.53.930,subsecond_timing_v2,2021.1.2,Win32,59.94844434
space,0.9032,space,1.039605,,,ms_small,0,173,173,173,1,0.988,0.1,False,None,Z03,r1,2021-04-28_16h20.53.930,subsecond_timing_v2,2021.1.2,Win32,59.94844434
space,0.83704,space,0.805185,,,ms_small,0,174,174,174,1,0.706,0.2,False,None,Z03,r1,2021-04-28_16h20.53.930,subsecond_timing_v2,2021.1.2,Win32,59.94844434
space,0.88827,space,0.742775,,,ms_small,0,175,175,175,1,0.918,0.2,False,None,Z03,r1,2021-04-28_16h20.53.930,subsecond_timing_v2,2021.1.2,Win32,59.94844434
space,0.94105,space,0.94116,,,ms_small,0,176,176,176,1,0.953,0.2,False,None,Z03,r1,2021-04-28_16h20.53.930,subsecond_timing_v2,2021.1.2,Win32,59.94844434
space,0.920995,space,0.71678,,,ms_small,0,177,177,177,1,0.67,0.2,False,None,Z03,r1,2021-04-28_16h20.53.930,subsecond_timing_v2,2021.1.2,Win32,59.94844434
space,0.870765,space,0.751765,,,ms_small,0,178,178,178,1,0.847,0.3,False,None,Z03,r1,2021-04-28_16h20.53.930,subsecond_timing_v2,2021.1.2,Win32,59.94844434
space,0.95334,space,0.757435,,,ms_small,0,179,179,179,1,0.776,0.1,False,None,Z03,r1,2021-04-28_16h20.53.930,subsecond_timing_v2,2021.1.2,Win32,59.94844434
space,0.92135,space,0.751745,,,ms_small,0,180,180,180,1,0.812,0.1,False,None,Z03,r1,2021-04-28_16h20.53.930,subsecond_timing_v2,2021.1.2,Win32,59.94844434
space,1.007445,space,0.88879,,,ms_small,0,181,181,181,1,1.024,0.2,False,None,Z03,r1,2021-04-28_16h20.53.930,subsecond_timing_v2,2021.1.2,Win32,59.94844434
space,0.970455,space,0.717155,,,ms_small,0,182,182,182,1,0.706,0.3,False,None,Z03,r1,2021-04-28_16h20.53.930,subsecond_timing_v2,2021.1.2,Win32,59.94844434
space,0.986745,space,0.70374,,,ms_small,0,183,183,183,1,0.988,0.1,False,None,Z03,r1,2021-04-28_16h20.53.930,subsecond_timing_v2,2021.1.2,Win32,59.94844434
space,0.8223,space,1.034085,,,ms_small,0,184,184,184,1,1.024,0.3,False,None,Z03,r1,2021-04-28_16h20.53.930,subsecond_timing_v2,2021.1.2,Win32,59.94844434
space,1.10451,space,0.81922,,,ms_small,0,185,185,185,1,0.847,0.1,False,None,Z03,r1,2021-04-28_16h20.53.930,subsecond_timing_v2,2021.1.2,Win32,59.94844434
space,0.90848,space,0.75966,,,ms_small,0,186,186,186,1,0.741,0.1,False,None,Z03,r1,2021-04-28_16h20.53.930,subsecond_timing_v2,2021.1.2,Win32,59.94844434
space,0.95295,space,1.00121,,,ms_small,0,187,187,187,1,0.776,0.3,False,None,Z03,r1,2021-04-28_16h20.53.930,subsecond_timing_v2,2021.1.2,Win32,59.94844434
space,1.00379,space,0.91893,,,ms_small,0,188,188,188,1,0.812,0.3,False,None,Z03,r1,2021-04-28_16h20.53.930,subsecond_timing_v2,2021.1.2,Win32,59.94844434
space,0.869665,space,0.80026,,,ms_small,0,189,189,189,1,0.918,0.3,False,None,Z03,r1,2021-04-28_16h20.53.930,subsecond_timing_v2,2021.1.2,Win32,59.94844434
space,0.96181,space,0.70747,,,ms_small,0,190,190,190,1,0.67,0.1,False,None,Z03,r1,2021-04-28_16h20.53.930,subsecond_timing_v2,2021.1.2,Win32,59.94844434
space,0.78755,space,0.772725,,,ms_small,0,191,191,191,1,0.882,0.2,False,None,Z03,r1,2021-04-28_16h20.53.930,subsecond_timing_v2,2021.1.2,Win32,59.94844434
space,0.86445,space,0.766915,,,ms_small,0,192,192,192,1,0.953,0.1,False,None,Z03,r1,2021-04-28_16h20.53.930,subsecond_timing_v2,2021.1.2,Win32,59.94844434
space,0.920695,space,0.73356,,,ms_small,0,193,193,193,1,0.776,0.1,False,None,Z03,r1,2021-04-28_16h20.53.930,subsecond_timing_v2,2021.1.2,Win32,59.94844434
space,0.723565,space,0.790065,,,ms_small,0,194,194,194,1,0.988,0.3,False,None,Z03,r1,2021-04-28_16h20.53.930,subsecond_timing_v2,2021.1.2,Win32,59.94844434
space,0.89051,space,0.819165,,,ms_small,0,195,195,195,1,0.953,0.1,False,None,Z03,r1,2021-04-28_16h20.53.930,subsecond_timing_v2,2021.1.2,Win32,59.94844434
space,0.919435,space,0.801105,,,ms_small,0,196,196,196,1,0.741,0.3,False,None,Z03,r1,2021-04-28_16h20.53.930,subsecond_timing_v2,2021.1.2,Win32,59.94844434
space,1.003615,space,0.76845,,,ms_small,0,197,197,197,1,0.67,0.3,False,None,Z03,r1,2021-04-28_16h20.53.930,subsecond_timing_v2,2021.1.2,Win32,59.94844434
space,0.807045,space,0.81694,,,ms_small,0,198,198,198,1,0.847,0.3,False,None,Z03,r1,2021-04-28_16h20.53.930,subsecond_timing_v2,2021.1.2,Win32,59.94844434
space,0.892405,space,0.83559,,,ms_small,0,199,199,199,1,0.882,0.2,False,None,Z03,r1,2021-04-28_16h20.53.930,subsecond_timing_v2,2021.1.2,Win32,59.94844434
space,0.903065,space,0.788655,,,ms_small,0,200,200,200,1,0.706,0.3,False,None,Z03,r1,2021-04-28_16h20.53.930,subsecond_timing_v2,2021.1.2,Win32,59.94844434
space,0.982985,space,0.83809,,,ms_small,0,201,201,201,1,0.812,0.1,False,None,Z03,r1,2021-04-28_16h20.53.930,subsecond_timing_v2,2021.1.2,Win32,59.94844434
space,0.6714,space,0.852195,,,ms_small,0,202,202,202,1,1.024,0.2,False,None,Z03,r1,2021-04-28_16h20.53.930,subsecond_timing_v2,2021.1.2,Win32,59.94844434
space,0.904055,space,0.817005,,,ms_small,0,203,203,203,1,0.918,0.1,False,None,Z03,r1,2021-04-28_16h20.53.930,subsecond_timing_v2,2021.1.2,Win32,59.94844434
space,0.92483,space,0.88525,,,ms_small,0,204,204,204,1,0.776,0.2,False,None,Z03,r1,2021-04-28_16h20.53.930,subsecond_timing_v2,2021.1.2,Win32,59.94844434
space,0.88745,space,0.74091,,,ms_small,0,205,205,205,1,0.67,0.1,False,None,Z03,r1,2021-04-28_16h20.53.930,subsecond_timing_v2,2021.1.2,Win32,59.94844434
space,0.874485,space,0.768505,,,ms_small,0,206,206,206,1,0.706,0.3,False,None,Z03,r1,2021-04-28_16h20.53.930,subsecond_timing_v2,2021.1.2,Win32,59.94844434
space,0.793265,space,0.80156,,,ms_small,0,207,207,207,1,0.988,0.2,False,None,Z03,r1,2021-04-28_16h20.53.930,subsecond_timing_v2,2021.1.2,Win32,59.94844434
space,0.866955,space,0.857145,,,ms_small,0,208,208,208,1,0.847,0.3,False,None,Z03,r1,2021-04-28_16h20.53.930,subsecond_timing_v2,2021.1.2,Win32,59.94844434
space,0.98745,space,0.86839,,,ms_small,0,209,209,209,1,0.953,0.2,False,None,Z03,r1,2021-04-28_16h20.53.930,subsecond_timing_v2,2021.1.2,Win32,59.94844434
space,0.92092,space,0.76699,,,ms_small,0,210,210,210,1,0.812,0.1,False,None,Z03,r1,2021-04-28_16h20.53.930,subsecond_timing_v2,2021.1.2,Win32,59.94844434
space,0.88667,space,0.767315,,,ms_small,0,211,211,211,1,0.918,0.1,False,None,Z03,r1,2021-04-28_16h20.53.930,subsecond_timing_v2,2021.1.2,Win32,59.94844434
space,0.990775,space,0.718035,,,ms_small,0,212,212,212,1,0.741,0.3,False,None,Z03,r1,2021-04-28_16h20.53.930,subsecond_timing_v2,2021.1.2,Win32,59.94844434
space,1.009355,space,0.7883,,,ms_small,0,213,213,213,1,0.882,0.3,False,None,Z03,r1,2021-04-28_16h20.53.930,subsecond_timing_v2,2021.1.2,Win32,59.94844434
space,1.019935,space,0.868345,,,ms_small,0,214,214,214,1,1.024,0.1,False,None,Z03,r1,2021-04-28_16h20.53.930,subsecond_timing_v2,2021.1.2,Win32,59.94844434
space,0.970405,space,0.825615,,,ms_small,0,215,215,215,1,1.024,0.2,False,None,Z03,r1,2021-04-28_16h20.53.930,subsecond_timing_v2,2021.1.2,Win32,59.94844434
space,0.95729,space,0.7688,,,ms_small,0,216,216,216,1,0.706,0.2,False,None,Z03,r1,2021-04-28_16h20.53.930,subsecond_timing_v2,2021.1.2,Win32,59.94844434
space,0.971475,space,0.893405,,,ms_small,0,217,217,217,1,0.882,0.1,False,None,Z03,r1,2021-04-28_16h20.53.930,subsecond_timing_v2,2021.1.2,Win32,59.94844434
space,0.953695,space,0.818395,,,ms_small,0,218,218,218,1,0.776,0.2,False,None,Z03,r1,2021-04-28_16h20.53.930,subsecond_timing_v2,2021.1.2,Win32,59.94844434
space,1.0028,space,0.93607,,,ms_small,0,219,219,219,1,0.847,0.2,False,None,Z03,r1,2021-04-28_16h20.53.930,subsecond_timing_v2,2021.1.2,Win32,59.94844434
space,0.986655,space,0.892285,,,ms_small,0,220,220,220,1,0.812,0.1,False,None,Z03,r1,2021-04-28_16h20.53.930,subsecond_timing_v2,2021.1.2,Win32,59.94844434
space,0.868795,space,0.852095,,,ms_small,0,221,221,221,1,0.988,0.1,False,None,Z03,r1,2021-04-28_16h20.53.930,subsecond_timing_v2,2021.1.2,Win32,59.94844434
space,0.93577,space,0.78332,,,ms_small,0,222,222,222,1,0.918,0.1,False,None,Z03,r1,2021-04-28_16h20.53.930,subsecond_timing_v2,2021.1.2,Win32,59.94844434
space,0.970635,space,0.771895,,,ms_small,0,223,223,223,1,0.67,0.2,False,None,Z03,r1,2021-04-28_16h20.53.930,subsecond_timing_v2,2021.1.2,Win32,59.94844434
space,0.92367,space,0.78491,,,ms_small,0,224,224,224,1,0.741,0.3,False,None,Z03,r1,2021-04-28_16h20.53.930,subsecond_timing_v2,2021.1.2,Win32,59.94844434
space,0.841565,space,0.86948,,,ms_small,0,225,225,225,1,0.953,0.1,False,None,Z03,r1,2021-04-28_16h20.53.930,subsecond_timing_v2,2021.1.2,Win32,59.94844434
