key_resp_start.keys,key_resp_start.rt,key_resp_stop.keys,key_resp_stop.rt,feedback_range,hit,stimulus_range,trials.thisRepN,trials.thisTrialN,trials.thisN,trials.thisIndex,trials.ran,stimulus_duration,onset,feedback,feedback_range_fromfile,participant,session,date,expName,psychopyVersion,OS,frameRate
space,0.78619,space,0.907785,0.3,TRUE,Training,0,0,0,0,1,1,0.3,True,0.3,Z05,r1,2021-05-04_21h55.11.494,subsecond_timing_v2,2021.1.2,Win32,59.82292414
space,0.679025,space,0.684225,0.3,TRUE,Training,0,1,1,1,1,0.75,0.1,True,0.3,Z05,r1,2021-05-04_21h55.11.494,subsecond_timing_v2,2021.1.2,Win32,59.82292414
space,0.517925,space,0.606535,0.3,TRUE,Training,0,2,2,2,1,0.5,0.1,True,0.3,Z05,r1,2021-05-04_21h55.11.494,subsecond_timing_v2,2021.1.2,Win32,59.82292414
space,0.734125,space,0.71668,0.3,FALSE,Training,0,3,3,3,1,0.5,0.2,True,0.3,Z05,r1,2021-05-04_21h55.11.494,subsecond_timing_v2,2021.1.2,Win32,59.82292414
space,0.884695,space,0.967925,0.3,TRUE,Training,0,4,4,4,1,0.75,0.2,True,0.3,Z05,r1,2021-05-04_21h55.11.494,subsecond_timing_v2,2021.1.2,Win32,59.82292414
space,1.400495,space,1.25657,0.3,TRUE,Training,0,5,5,5,1,1,0.3,True,0.3,Z05,r1,2021-05-04_21h55.11.494,subsecond_timing_v2,2021.1.2,Win32,59.82292414
space,0.767235,space,0.685975,,,ms_small,0,6,6,6,1,0.706,0.2,False,None,Z05,r1,2021-05-04_21h55.11.494,subsecond_timing_v2,2021.1.2,Win32,59.82292414
space,0.928075,space,0.808295,,,ms_small,0,7,7,7,1,0.812,0.3,False,None,Z05,r1,2021-05-04_21h55.11.494,subsecond_timing_v2,2021.1.2,Win32,59.82292414
space,0.647605,space,0.972815,,,ms_small,0,8,8,8,1,0.847,0.1,False,None,Z05,r1,2021-05-04_21h55.11.494,subsecond_timing_v2,2021.1.2,Win32,59.82292414
space,0.61141,space,0.79292,,,ms_small,0,9,9,9,1,0.67,0.3,False,None,Z05,r1,2021-05-04_21h55.11.494,subsecond_timing_v2,2021.1.2,Win32,59.82292414
space,0.63384,space,0.90111,,,ms_small,0,10,10,10,1,0.988,0.1,False,None,Z05,r1,2021-05-04_21h55.11.494,subsecond_timing_v2,2021.1.2,Win32,59.82292414
space,0.5339,space,1.067665,,,ms_small,0,11,11,11,1,0.953,0.1,False,None,Z05,r1,2021-05-04_21h55.11.494,subsecond_timing_v2,2021.1.2,Win32,59.82292414
space,0.78672,space,0.88403,,,ms_small,0,12,12,12,1,0.882,0.3,False,None,Z05,r1,2021-05-04_21h55.11.494,subsecond_timing_v2,2021.1.2,Win32,59.82292414
space,0.33008,space,1.0593,,,ms_small,0,13,13,13,1,0.918,0.1,False,None,Z05,r1,2021-05-04_21h55.11.494,subsecond_timing_v2,2021.1.2,Win32,59.82292414
space,0.40192,space,1.10788,,,ms_small,0,14,14,14,1,0.776,0.2,False,None,Z05,r1,2021-05-04_21h55.11.494,subsecond_timing_v2,2021.1.2,Win32,59.82292414
space,0.37601,space,0.778175,,,ms_small,0,15,15,15,1,0.741,0.3,False,None,Z05,r1,2021-05-04_21h55.11.494,subsecond_timing_v2,2021.1.2,Win32,59.82292414
space,0.588675,space,0.97959,,,ms_small,0,16,16,16,1,1.024,0.3,False,None,Z05,r1,2021-05-04_21h55.11.494,subsecond_timing_v2,2021.1.2,Win32,59.82292414
space,0.733615,space,0.82531,,,ms_small,0,17,17,17,1,0.67,0.1,False,None,Z05,r1,2021-05-04_21h55.11.494,subsecond_timing_v2,2021.1.2,Win32,59.82292414
space,0.70726,space,1.11337,,,ms_small,0,18,18,18,1,0.812,0.3,False,None,Z05,r1,2021-05-04_21h55.11.494,subsecond_timing_v2,2021.1.2,Win32,59.82292414
space,0.56232,space,0.962095,,,ms_small,0,19,19,19,1,0.953,0.3,False,None,Z05,r1,2021-05-04_21h55.11.494,subsecond_timing_v2,2021.1.2,Win32,59.82292414
space,0.400665,space,0.942115,,,ms_small,0,20,20,20,1,0.776,0.1,False,None,Z05,r1,2021-05-04_21h55.11.494,subsecond_timing_v2,2021.1.2,Win32,59.82292414
space,0.638335,space,0.853885,,,ms_small,0,21,21,21,1,0.741,0.2,False,None,Z05,r1,2021-05-04_21h55.11.494,subsecond_timing_v2,2021.1.2,Win32,59.82292414
space,0.65354,space,0.90148,,,ms_small,0,22,22,22,1,0.847,0.2,False,None,Z05,r1,2021-05-04_21h55.11.494,subsecond_timing_v2,2021.1.2,Win32,59.82292414
space,0.500535,space,0.974255,,,ms_small,0,23,23,23,1,1.024,0.1,False,None,Z05,r1,2021-05-04_21h55.11.494,subsecond_timing_v2,2021.1.2,Win32,59.82292414
space,0.635945,space,0.722185,,,ms_small,0,24,24,24,1,0.882,0.3,False,None,Z05,r1,2021-05-04_21h55.11.494,subsecond_timing_v2,2021.1.2,Win32,59.82292414
space,0.67258,space,0.929075,,,ms_small,0,25,25,25,1,0.988,0.1,False,None,Z05,r1,2021-05-04_21h55.11.494,subsecond_timing_v2,2021.1.2,Win32,59.82292414
space,0.58368,space,0.700555,,,ms_small,0,26,26,26,1,0.706,0.2,False,None,Z05,r1,2021-05-04_21h55.11.494,subsecond_timing_v2,2021.1.2,Win32,59.82292414
space,0.660125,space,1.023995,,,ms_small,0,27,27,27,1,0.918,0.3,False,None,Z05,r1,2021-05-04_21h55.11.494,subsecond_timing_v2,2021.1.2,Win32,59.82292414
space,0.42744,space,0.923255,,,ms_small,0,28,28,28,1,0.706,0.1,False,None,Z05,r1,2021-05-04_21h55.11.494,subsecond_timing_v2,2021.1.2,Win32,59.82292414
space,0.537335,space,0.977345,,,ms_small,0,29,29,29,1,0.918,0.1,False,None,Z05,r1,2021-05-04_21h55.11.494,subsecond_timing_v2,2021.1.2,Win32,59.82292414
space,0.60093,space,0.78392,,,ms_small,0,30,30,30,1,0.67,0.2,False,None,Z05,r1,2021-05-04_21h55.11.494,subsecond_timing_v2,2021.1.2,Win32,59.82292414
space,0.337305,space,1.039455,,,ms_small,0,31,31,31,1,0.988,0.1,False,None,Z05,r1,2021-05-04_21h55.11.494,subsecond_timing_v2,2021.1.2,Win32,59.82292414
space,0.296775,space,1.03766,,,ms_small,0,32,32,32,1,0.953,0.2,False,None,Z05,r1,2021-05-04_21h55.11.494,subsecond_timing_v2,2021.1.2,Win32,59.82292414
space,0.651065,space,0.57067,,,ms_small,0,33,33,33,1,0.776,0.1,False,None,Z05,r1,2021-05-04_21h55.11.494,subsecond_timing_v2,2021.1.2,Win32,59.82292414
space,0.77755,space,0.90961,,,ms_small,0,34,34,34,1,0.847,0.1,False,None,Z05,r1,2021-05-04_21h55.11.494,subsecond_timing_v2,2021.1.2,Win32,59.82292414
space,0.77125,space,0.851005,,,ms_small,0,35,35,35,1,0.741,0.2,False,None,Z05,r1,2021-05-04_21h55.11.494,subsecond_timing_v2,2021.1.2,Win32,59.82292414
space,0.75094,space,0.680325,,,ms_small,0,36,36,36,1,0.812,0.1,False,None,Z05,r1,2021-05-04_21h55.11.494,subsecond_timing_v2,2021.1.2,Win32,59.82292414
space,0.76932,space,0.73019,,,ms_small,0,37,37,37,1,0.882,0.1,False,None,Z05,r1,2021-05-04_21h55.11.494,subsecond_timing_v2,2021.1.2,Win32,59.82292414
space,0.704665,space,1.09428,,,ms_small,0,38,38,38,1,1.024,0.3,False,None,Z05,r1,2021-05-04_21h55.11.494,subsecond_timing_v2,2021.1.2,Win32,59.82292414
space,0.957415,space,0.98455,,,ms_small,0,39,39,39,1,0.847,0.2,False,None,Z05,r1,2021-05-04_21h55.11.494,subsecond_timing_v2,2021.1.2,Win32,59.82292414
space,0.82379,space,0.78868,,,ms_small,0,40,40,40,1,0.918,0.2,False,None,Z05,r1,2021-05-04_21h55.11.494,subsecond_timing_v2,2021.1.2,Win32,59.82292414
space,0.65809,space,0.84251,,,ms_small,0,41,41,41,1,0.953,0.1,False,None,Z05,r1,2021-05-04_21h55.11.494,subsecond_timing_v2,2021.1.2,Win32,59.82292414
space,0.46787,space,0.983945,,,ms_small,0,42,42,42,1,0.882,0.3,False,None,Z05,r1,2021-05-04_21h55.11.494,subsecond_timing_v2,2021.1.2,Win32,59.82292414
space,0.5399,space,0.90113,,,ms_small,0,43,43,43,1,0.741,0.2,False,None,Z05,r1,2021-05-04_21h55.11.494,subsecond_timing_v2,2021.1.2,Win32,59.82292414
space,0.51778,space,0.93493,,,ms_small,0,44,44,44,1,0.67,0.3,False,None,Z05,r1,2021-05-04_21h55.11.494,subsecond_timing_v2,2021.1.2,Win32,59.82292414
space,0.628295,space,0.52135,,,ms_small,0,45,45,45,1,0.812,0.2,False,None,Z05,r1,2021-05-04_21h55.11.494,subsecond_timing_v2,2021.1.2,Win32,59.82292414
space,0.496105,space,0.91819,,,ms_small,0,46,46,46,1,1.024,0.3,False,None,Z05,r1,2021-05-04_21h55.11.494,subsecond_timing_v2,2021.1.2,Win32,59.82292414
space,0.85394,space,0.801135,,,ms_small,0,47,47,47,1,0.706,0.3,False,None,Z05,r1,2021-05-04_21h55.11.494,subsecond_timing_v2,2021.1.2,Win32,59.82292414
space,0.78069,space,1.039045,,,ms_small,0,48,48,48,1,0.988,0.2,False,None,Z05,r1,2021-05-04_21h55.11.494,subsecond_timing_v2,2021.1.2,Win32,59.82292414
space,0.80867,space,0.78894,,,ms_small,0,49,49,49,1,0.776,0.1,False,None,Z05,r1,2021-05-04_21h55.11.494,subsecond_timing_v2,2021.1.2,Win32,59.82292414
space,0.70312,space,1.05832,,,ms_small,0,50,50,50,1,0.988,0.1,False,None,Z05,r1,2021-05-04_21h55.11.494,subsecond_timing_v2,2021.1.2,Win32,59.82292414
space,1.01059,space,1.202535,,,ms_small,0,51,51,51,1,0.706,0.3,False,None,Z05,r1,2021-05-04_21h55.11.494,subsecond_timing_v2,2021.1.2,Win32,59.82292414
space,0.47771,space,0.9783,,,ms_small,0,52,52,52,1,0.953,0.2,False,None,Z05,r1,2021-05-04_21h55.11.494,subsecond_timing_v2,2021.1.2,Win32,59.82292414
space,0.874825,space,0.81989,,,ms_small,0,53,53,53,1,0.847,0.2,False,None,Z05,r1,2021-05-04_21h55.11.494,subsecond_timing_v2,2021.1.2,Win32,59.82292414
space,0.72922,space,1.28376,,,ms_small,0,54,54,54,1,0.918,0.3,False,None,Z05,r1,2021-05-04_21h55.11.494,subsecond_timing_v2,2021.1.2,Win32,59.82292414
space,0.77358,space,0.60599,,,ms_small,0,55,55,55,1,0.741,0.1,False,None,Z05,r1,2021-05-04_21h55.11.494,subsecond_timing_v2,2021.1.2,Win32,59.82292414
space,0.75797,space,0.683865,,,ms_small,0,56,56,56,1,0.67,0.1,False,None,Z05,r1,2021-05-04_21h55.11.494,subsecond_timing_v2,2021.1.2,Win32,59.82292414
space,0.717385,space,0.772505,,,ms_small,0,57,57,57,1,0.776,0.2,False,None,Z05,r1,2021-05-04_21h55.11.494,subsecond_timing_v2,2021.1.2,Win32,59.82292414
space,0.87365,space,0.823615,,,ms_small,0,58,58,58,1,0.882,0.1,False,None,Z05,r1,2021-05-04_21h55.11.494,subsecond_timing_v2,2021.1.2,Win32,59.82292414
space,0.904175,space,0.75669,,,ms_small,0,59,59,59,1,0.812,0.2,False,None,Z05,r1,2021-05-04_21h55.11.494,subsecond_timing_v2,2021.1.2,Win32,59.82292414
space,0.79596,space,1.04218,,,ms_small,0,60,60,60,1,1.024,0.2,False,None,Z05,r1,2021-05-04_21h55.11.494,subsecond_timing_v2,2021.1.2,Win32,59.82292414
space,1.087495,space,1.05279,,,ms_small,0,61,61,61,1,0.847,0.3,False,None,Z05,r1,2021-05-04_21h55.11.494,subsecond_timing_v2,2021.1.2,Win32,59.82292414
space,0.82944,space,0.66422,,,ms_small,0,62,62,62,1,0.67,0.1,False,None,Z05,r1,2021-05-04_21h55.11.494,subsecond_timing_v2,2021.1.2,Win32,59.82292414
space,0.700745,space,1.00072,,,ms_small,0,63,63,63,1,0.988,0.3,False,None,Z05,r1,2021-05-04_21h55.11.494,subsecond_timing_v2,2021.1.2,Win32,59.82292414
space,0.9439,space,0.73779,,,ms_small,0,64,64,64,1,0.812,0.1,False,None,Z05,r1,2021-05-04_21h55.11.494,subsecond_timing_v2,2021.1.2,Win32,59.82292414
space,0.73459,space,0.78487,,,ms_small,0,65,65,65,1,0.882,0.3,False,None,Z05,r1,2021-05-04_21h55.11.494,subsecond_timing_v2,2021.1.2,Win32,59.82292414
space,0.785875,space,0.8432,,,ms_small,0,66,66,66,1,0.918,0.1,False,None,Z05,r1,2021-05-04_21h55.11.494,subsecond_timing_v2,2021.1.2,Win32,59.82292414
space,0.819925,space,0.85124,,,ms_small,0,67,67,67,1,1.024,0.1,False,None,Z05,r1,2021-05-04_21h55.11.494,subsecond_timing_v2,2021.1.2,Win32,59.82292414
space,0.834465,space,0.717615,,,ms_small,0,68,68,68,1,0.776,0.2,False,None,Z05,r1,2021-05-04_21h55.11.494,subsecond_timing_v2,2021.1.2,Win32,59.82292414
space,0.93982,space,1.03483,,,ms_small,0,69,69,69,1,0.953,0.1,False,None,Z05,r1,2021-05-04_21h55.11.494,subsecond_timing_v2,2021.1.2,Win32,59.82292414
space,0.7634,space,0.75451,,,ms_small,0,70,70,70,1,0.706,0.1,False,None,Z05,r1,2021-05-04_21h55.11.494,subsecond_timing_v2,2021.1.2,Win32,59.82292414
space,0.746105,space,1.000855,,,ms_small,0,71,71,71,1,0.741,0.3,False,None,Z05,r1,2021-05-04_21h55.11.494,subsecond_timing_v2,2021.1.2,Win32,59.82292414
space,0.852185,space,0.910225,,,ms_small,0,72,72,72,1,0.882,0.2,False,None,Z05,r1,2021-05-04_21h55.11.494,subsecond_timing_v2,2021.1.2,Win32,59.82292414
space,0.93023,space,0.95081,,,ms_small,0,73,73,73,1,0.918,0.3,False,None,Z05,r1,2021-05-04_21h55.11.494,subsecond_timing_v2,2021.1.2,Win32,59.82292414
space,0.885565,space,0.967745,,,ms_small,0,74,74,74,1,0.988,0.2,False,None,Z05,r1,2021-05-04_21h55.11.494,subsecond_timing_v2,2021.1.2,Win32,59.82292414
space,0.80096,space,0.57249,,,ms_small,0,75,75,75,1,0.67,0.1,False,None,Z05,r1,2021-05-04_21h55.11.494,subsecond_timing_v2,2021.1.2,Win32,59.82292414
space,0.93027,space,0.972445,,,ms_small,0,76,76,76,1,0.776,0.3,False,None,Z05,r1,2021-05-04_21h55.11.494,subsecond_timing_v2,2021.1.2,Win32,59.82292414
space,0.86736,space,1.007295,,,ms_small,0,77,77,77,1,0.847,0.2,False,None,Z05,r1,2021-05-04_21h55.11.494,subsecond_timing_v2,2021.1.2,Win32,59.82292414
space,0.87337,space,0.93425,,,ms_small,0,78,78,78,1,1.024,0.2,False,None,Z05,r1,2021-05-04_21h55.11.494,subsecond_timing_v2,2021.1.2,Win32,59.82292414
space,0.869265,space,0.968115,,,ms_small,0,79,79,79,1,0.812,0.3,False,None,Z05,r1,2021-05-04_21h55.11.494,subsecond_timing_v2,2021.1.2,Win32,59.82292414
space,0.79461,space,1.071285,,,ms_small,0,80,80,80,1,0.953,0.1,False,None,Z05,r1,2021-05-04_21h55.11.494,subsecond_timing_v2,2021.1.2,Win32,59.82292414
space,0.807785,space,0.718765,,,ms_small,0,81,81,81,1,0.706,0.2,False,None,Z05,r1,2021-05-04_21h55.11.494,subsecond_timing_v2,2021.1.2,Win32,59.82292414
space,0.78879,space,0.730705,,,ms_small,0,82,82,82,1,0.741,0.3,False,None,Z05,r1,2021-05-04_21h55.11.494,subsecond_timing_v2,2021.1.2,Win32,59.82292414
space,0.60359,space,0.45144,,,ms_small,0,83,83,83,1,0.706,0.1,False,None,Z05,r1,2021-05-04_21h55.11.494,subsecond_timing_v2,2021.1.2,Win32,59.82292414
space,0.577625,space,0.78891,,,ms_small,0,84,84,84,1,0.812,0.2,False,None,Z05,r1,2021-05-04_21h55.11.494,subsecond_timing_v2,2021.1.2,Win32,59.82292414
space,0.645005,space,0.82961,,,ms_small,0,85,85,85,1,0.882,0.2,False,None,Z05,r1,2021-05-04_21h55.11.494,subsecond_timing_v2,2021.1.2,Win32,59.82292414
space,0.676105,space,0.709965,,,ms_small,0,86,86,86,1,0.776,0.1,False,None,Z05,r1,2021-05-04_21h55.11.494,subsecond_timing_v2,2021.1.2,Win32,59.82292414
space,0.56226,space,0.69169,,,ms_small,0,87,87,87,1,0.988,0.3,False,None,Z05,r1,2021-05-04_21h55.11.494,subsecond_timing_v2,2021.1.2,Win32,59.82292414
space,0.63468,space,0.884325,,,ms_small,0,88,88,88,1,0.67,0.2,False,None,Z05,r1,2021-05-04_21h55.11.494,subsecond_timing_v2,2021.1.2,Win32,59.82292414
space,0.558785,space,0.650985,,,ms_small,0,89,89,89,1,0.741,0.3,False,None,Z05,r1,2021-05-04_21h55.11.494,subsecond_timing_v2,2021.1.2,Win32,59.82292414
space,0.71815,space,0.701065,,,ms_small,0,90,90,90,1,0.918,0.1,False,None,Z05,r1,2021-05-04_21h55.11.494,subsecond_timing_v2,2021.1.2,Win32,59.82292414
space,0.72468,space,0.863295,,,ms_small,0,91,91,91,1,0.847,0.3,False,None,Z05,r1,2021-05-04_21h55.11.494,subsecond_timing_v2,2021.1.2,Win32,59.82292414
space,0.72922,space,0.702615,,,ms_small,0,92,92,92,1,0.953,0.2,False,None,Z05,r1,2021-05-04_21h55.11.494,subsecond_timing_v2,2021.1.2,Win32,59.82292414
space,0.64587,space,0.9861,,,ms_small,0,93,93,93,1,1.024,0.2,False,None,Z05,r1,2021-05-04_21h55.11.494,subsecond_timing_v2,2021.1.2,Win32,59.82292414
space,0.70262,space,1.02265,,,ms_small,0,94,94,94,1,0.882,0.1,False,None,Z05,r1,2021-05-04_21h55.11.494,subsecond_timing_v2,2021.1.2,Win32,59.82292414
space,0.83427,space,0.634575,,,ms_small,0,95,95,95,1,0.67,0.2,False,None,Z05,r1,2021-05-04_21h55.11.494,subsecond_timing_v2,2021.1.2,Win32,59.82292414
space,0.68422,space,0.901745,,,ms_small,0,96,96,96,1,0.918,0.3,False,None,Z05,r1,2021-05-04_21h55.11.494,subsecond_timing_v2,2021.1.2,Win32,59.82292414
space,0.83559,space,0.91006,,,ms_small,0,97,97,97,1,0.706,0.2,False,None,Z05,r1,2021-05-04_21h55.11.494,subsecond_timing_v2,2021.1.2,Win32,59.82292414
space,0.91002,space,1.10086,,,ms_small,0,98,98,98,1,0.988,0.1,False,None,Z05,r1,2021-05-04_21h55.11.494,subsecond_timing_v2,2021.1.2,Win32,59.82292414
space,0.97372,space,1.01107,,,ms_small,0,99,99,99,1,0.741,0.3,False,None,Z05,r1,2021-05-04_21h55.11.494,subsecond_timing_v2,2021.1.2,Win32,59.82292414
space,0.80453,space,1.217755,,,ms_small,0,100,100,100,1,1.024,0.2,False,None,Z05,r1,2021-05-04_21h55.11.494,subsecond_timing_v2,2021.1.2,Win32,59.82292414
space,0.667685,space,0.76302,,,ms_small,0,101,101,101,1,0.776,0.2,False,None,Z05,r1,2021-05-04_21h55.11.494,subsecond_timing_v2,2021.1.2,Win32,59.82292414
space,0.68433,space,0.542695,,,ms_small,0,102,102,102,1,0.812,0.2,False,None,Z05,r1,2021-05-04_21h55.11.494,subsecond_timing_v2,2021.1.2,Win32,59.82292414
space,0.82685,space,0.663395,,,ms_small,0,103,103,103,1,0.953,0.2,False,None,Z05,r1,2021-05-04_21h55.11.494,subsecond_timing_v2,2021.1.2,Win32,59.82292414
space,0.794085,space,0.70805,,,ms_small,0,104,104,104,1,0.847,0.1,False,None,Z05,r1,2021-05-04_21h55.11.494,subsecond_timing_v2,2021.1.2,Win32,59.82292414
space,0.617675,space,0.675555,,,ms_small,0,105,105,105,1,0.706,0.2,False,None,Z05,r1,2021-05-04_21h55.11.494,subsecond_timing_v2,2021.1.2,Win32,59.82292414
space,0.723625,space,0.7618,,,ms_small,0,106,106,106,1,0.741,0.1,False,None,Z05,r1,2021-05-04_21h55.11.494,subsecond_timing_v2,2021.1.2,Win32,59.82292414
space,0.61911,space,0.85538,,,ms_small,0,107,107,107,1,0.67,0.1,False,None,Z05,r1,2021-05-04_21h55.11.494,subsecond_timing_v2,2021.1.2,Win32,59.82292414
space,0.661565,space,0.62831,,,ms_small,0,108,108,108,1,0.847,0.1,False,None,Z05,r1,2021-05-04_21h55.11.494,subsecond_timing_v2,2021.1.2,Win32,59.82292414
space,0.802245,space,0.811585,,,ms_small,0,109,109,109,1,0.812,0.2,False,None,Z05,r1,2021-05-04_21h55.11.494,subsecond_timing_v2,2021.1.2,Win32,59.82292414
space,0.544055,space,0.818245,,,ms_small,0,110,110,110,1,0.776,0.3,False,None,Z05,r1,2021-05-04_21h55.11.494,subsecond_timing_v2,2021.1.2,Win32,59.82292414
space,0.64324,space,0.888705,,,ms_small,0,111,111,111,1,0.988,0.3,False,None,Z05,r1,2021-05-04_21h55.11.494,subsecond_timing_v2,2021.1.2,Win32,59.82292414
space,0.769825,space,0.86386,,,ms_small,0,112,112,112,1,0.918,0.1,False,None,Z05,r1,2021-05-04_21h55.11.494,subsecond_timing_v2,2021.1.2,Win32,59.82292414
space,0.83666,space,0.85275,,,ms_small,0,113,113,113,1,0.882,0.1,False,None,Z05,r1,2021-05-04_21h55.11.494,subsecond_timing_v2,2021.1.2,Win32,59.82292414
space,0.721135,space,0.867685,,,ms_small,0,114,114,114,1,1.024,0.2,False,None,Z05,r1,2021-05-04_21h55.11.494,subsecond_timing_v2,2021.1.2,Win32,59.82292414
space,0.771055,space,0.903555,,,ms_small,0,115,115,115,1,0.953,0.2,False,None,Z05,r1,2021-05-04_21h55.11.494,subsecond_timing_v2,2021.1.2,Win32,59.82292414
space,0.857365,space,0.830285,,,ms_small,0,116,116,116,1,0.847,0.3,False,None,Z05,r1,2021-05-04_21h55.11.494,subsecond_timing_v2,2021.1.2,Win32,59.82292414
space,0.950695,space,0.960255,,,ms_small,0,117,117,117,1,0.882,0.2,False,None,Z05,r1,2021-05-04_21h55.11.494,subsecond_timing_v2,2021.1.2,Win32,59.82292414
space,0.82633,space,0.862445,,,ms_small,0,118,118,118,1,1.024,0.1,False,None,Z05,r1,2021-05-04_21h55.11.494,subsecond_timing_v2,2021.1.2,Win32,59.82292414
space,0.75575,space,0.776625,,,ms_small,0,119,119,119,1,0.706,0.2,False,None,Z05,r1,2021-05-04_21h55.11.494,subsecond_timing_v2,2021.1.2,Win32,59.82292414
space,1.005875,space,0.97483,,,ms_small,0,120,120,120,1,0.918,0.1,False,None,Z05,r1,2021-05-04_21h55.11.494,subsecond_timing_v2,2021.1.2,Win32,59.82292414
space,0.71218,space,0.728095,,,ms_small,0,121,121,121,1,0.776,0.1,False,None,Z05,r1,2021-05-04_21h55.11.494,subsecond_timing_v2,2021.1.2,Win32,59.82292414
space,0.73368,space,1.07893,,,ms_small,0,122,122,122,1,0.953,0.3,False,None,Z05,r1,2021-05-04_21h55.11.494,subsecond_timing_v2,2021.1.2,Win32,59.82292414
space,0.74694,space,0.91146,,,ms_small,0,123,123,123,1,0.67,0.1,False,None,Z05,r1,2021-05-04_21h55.11.494,subsecond_timing_v2,2021.1.2,Win32,59.82292414
space,0.64028,space,0.88392,,,ms_small,0,124,124,124,1,0.812,0.2,False,None,Z05,r1,2021-05-04_21h55.11.494,subsecond_timing_v2,2021.1.2,Win32,59.82292414
space,0.883345,space,0.80099,,,ms_small,0,125,125,125,1,0.988,0.2,False,None,Z05,r1,2021-05-04_21h55.11.494,subsecond_timing_v2,2021.1.2,Win32,59.82292414
space,0.761265,space,0.718125,,,ms_small,0,126,126,126,1,0.741,0.3,False,None,Z05,r1,2021-05-04_21h55.11.494,subsecond_timing_v2,2021.1.2,Win32,59.82292414
space,0.78389,space,0.65845,,,ms_small,0,127,127,127,1,0.67,0.1,False,None,Z05,r1,2021-05-04_21h55.11.494,subsecond_timing_v2,2021.1.2,Win32,59.82292414
space,0.95394,space,0.71964,,,ms_small,0,128,128,128,1,0.776,0.3,False,None,Z05,r1,2021-05-04_21h55.11.494,subsecond_timing_v2,2021.1.2,Win32,59.82292414
space,0.822985,space,0.8291,,,ms_small,0,129,129,129,1,0.847,0.1,False,None,Z05,r1,2021-05-04_21h55.11.494,subsecond_timing_v2,2021.1.2,Win32,59.82292414
space,0.767285,space,0.81051,,,ms_small,0,130,130,130,1,0.812,0.1,False,None,Z05,r1,2021-05-04_21h55.11.494,subsecond_timing_v2,2021.1.2,Win32,59.82292414
space,1.420265,space,0.88617,,,ms_small,0,131,131,131,1,0.882,0.1,False,None,Z05,r1,2021-05-04_21h55.11.494,subsecond_timing_v2,2021.1.2,Win32,59.82292414
space,0.70073,space,1.00351,,,ms_small,0,132,132,132,1,1.024,0.2,False,None,Z05,r1,2021-05-04_21h55.11.494,subsecond_timing_v2,2021.1.2,Win32,59.82292414
space,1.217645,space,0.82711,,,ms_small,0,133,133,133,1,0.953,0.3,False,None,Z05,r1,2021-05-04_21h55.11.494,subsecond_timing_v2,2021.1.2,Win32,59.82292414
space,0.717575,space,0.904345,,,ms_small,0,134,134,134,1,0.988,0.2,False,None,Z05,r1,2021-05-04_21h55.11.494,subsecond_timing_v2,2021.1.2,Win32,59.82292414
space,0.85737,space,0.68362,,,ms_small,0,135,135,135,1,0.706,0.1,False,None,Z05,r1,2021-05-04_21h55.11.494,subsecond_timing_v2,2021.1.2,Win32,59.82292414
space,0.79335,space,0.762555,,,ms_small,0,136,136,136,1,0.918,0.1,False,None,Z05,r1,2021-05-04_21h55.11.494,subsecond_timing_v2,2021.1.2,Win32,59.82292414
space,0.80561,space,0.768795,,,ms_small,0,137,137,137,1,0.741,0.1,False,None,Z05,r1,2021-05-04_21h55.11.494,subsecond_timing_v2,2021.1.2,Win32,59.82292414
space,0.68697,space,0.850495,,,ms_small,0,138,138,138,1,0.741,0.3,False,None,Z05,r1,2021-05-04_21h55.11.494,subsecond_timing_v2,2021.1.2,Win32,59.82292414
space,0.70891,space,0.96827,,,ms_small,0,139,139,139,1,0.988,0.2,False,None,Z05,r1,2021-05-04_21h55.11.494,subsecond_timing_v2,2021.1.2,Win32,59.82292414
space,0.81846,space,0.772505,,,ms_small,0,140,140,140,1,0.812,0.3,False,None,Z05,r1,2021-05-04_21h55.11.494,subsecond_timing_v2,2021.1.2,Win32,59.82292414
space,0.62925,space,0.84304,,,ms_small,0,141,141,141,1,0.918,0.2,False,None,Z05,r1,2021-05-04_21h55.11.494,subsecond_timing_v2,2021.1.2,Win32,59.82292414
space,0.064925,space,0.979685,,,ms_small,0,142,142,142,1,0.847,0.2,False,None,Z05,r1,2021-05-04_21h55.11.494,subsecond_timing_v2,2021.1.2,Win32,59.82292414
space,0.971465,space,0.567805,,,ms_small,0,143,143,143,1,0.953,0.1,False,None,Z05,r1,2021-05-04_21h55.11.494,subsecond_timing_v2,2021.1.2,Win32,59.82292414
space,0.796205,space,0.62151,,,ms_small,0,144,144,144,1,0.776,0.3,False,None,Z05,r1,2021-05-04_21h55.11.494,subsecond_timing_v2,2021.1.2,Win32,59.82292414
space,0.808695,space,0.834715,,,ms_small,0,145,145,145,1,0.706,0.3,False,None,Z05,r1,2021-05-04_21h55.11.494,subsecond_timing_v2,2021.1.2,Win32,59.82292414
space,0.83913,space,0.911785,,,ms_small,0,146,146,146,1,1.024,0.1,False,None,Z05,r1,2021-05-04_21h55.11.494,subsecond_timing_v2,2021.1.2,Win32,59.82292414
space,1.008115,space,1.11733,,,ms_small,0,147,147,147,1,0.882,0.2,False,None,Z05,r1,2021-05-04_21h55.11.494,subsecond_timing_v2,2021.1.2,Win32,59.82292414
space,0.818535,space,0.81756,,,ms_small,0,148,148,148,1,0.67,0.3,False,None,Z05,r1,2021-05-04_21h55.11.494,subsecond_timing_v2,2021.1.2,Win32,59.82292414
space,0.809765,space,0.800595,,,ms_small,0,149,149,149,1,0.67,0.3,False,None,Z05,r1,2021-05-04_21h55.11.494,subsecond_timing_v2,2021.1.2,Win32,59.82292414
space,0.687395,space,0.79548,,,ms_small,0,150,150,150,1,0.741,0.3,False,None,Z05,r1,2021-05-04_21h55.11.494,subsecond_timing_v2,2021.1.2,Win32,59.82292414
space,0.69519,space,0.90279,,,ms_small,0,151,151,151,1,0.918,0.1,False,None,Z05,r1,2021-05-04_21h55.11.494,subsecond_timing_v2,2021.1.2,Win32,59.82292414
space,0.64034,space,0.692505,,,ms_small,0,152,152,152,1,0.706,0.3,False,None,Z05,r1,2021-05-04_21h55.11.494,subsecond_timing_v2,2021.1.2,Win32,59.82292414
space,0.60032,space,0.90053,,,ms_small,0,153,153,153,1,0.988,0.2,False,None,Z05,r1,2021-05-04_21h55.11.494,subsecond_timing_v2,2021.1.2,Win32,59.82292414
space,0.81297,space,0.871835,,,ms_small,0,154,154,154,1,0.847,0.2,False,None,Z05,r1,2021-05-04_21h55.11.494,subsecond_timing_v2,2021.1.2,Win32,59.82292414
space,5.36863,space,0.66952,,,ms_small,0,155,155,155,1,0.776,0.3,False,None,Z05,r1,2021-05-04_21h55.11.494,subsecond_timing_v2,2021.1.2,Win32,59.82292414
space,0.89516,space,0.72955,,,ms_small,0,156,156,156,1,0.882,0.2,False,None,Z05,r1,2021-05-04_21h55.11.494,subsecond_timing_v2,2021.1.2,Win32,59.82292414
space,0.79092,space,0.806065,,,ms_small,0,157,157,157,1,0.812,0.1,False,None,Z05,r1,2021-05-04_21h55.11.494,subsecond_timing_v2,2021.1.2,Win32,59.82292414
space,0.80625,space,1.069225,,,ms_small,0,158,158,158,1,1.024,0.1,False,None,Z05,r1,2021-05-04_21h55.11.494,subsecond_timing_v2,2021.1.2,Win32,59.82292414
space,0.8738,space,1.026975,,,ms_small,0,159,159,159,1,0.953,0.2,False,None,Z05,r1,2021-05-04_21h55.11.494,subsecond_timing_v2,2021.1.2,Win32,59.82292414
space,0.820145,space,0.67336,,,ms_small,0,160,160,160,1,0.812,0.2,False,None,Z05,r1,2021-05-04_21h55.11.494,subsecond_timing_v2,2021.1.2,Win32,59.82292414
space,0.712645,space,0.71721,,,ms_small,0,161,161,161,1,0.67,0.1,False,None,Z05,r1,2021-05-04_21h55.11.494,subsecond_timing_v2,2021.1.2,Win32,59.82292414
space,0.61467,space,0.811045,,,ms_small,0,162,162,162,1,0.953,0.1,False,None,Z05,r1,2021-05-04_21h55.11.494,subsecond_timing_v2,2021.1.2,Win32,59.82292414
space,0.791765,space,0.8799,,,ms_small,0,163,163,163,1,0.882,0.3,False,None,Z05,r1,2021-05-04_21h55.11.494,subsecond_timing_v2,2021.1.2,Win32,59.82292414
space,0.724515,space,0.708475,,,ms_small,0,164,164,164,1,0.988,0.1,False,None,Z05,r1,2021-05-04_21h55.11.494,subsecond_timing_v2,2021.1.2,Win32,59.82292414
space,0.750355,space,0.94517,,,ms_small,0,165,165,165,1,0.706,0.1,False,None,Z05,r1,2021-05-04_21h55.11.494,subsecond_timing_v2,2021.1.2,Win32,59.82292414
space,0.78023,space,0.95695,,,ms_small,0,166,166,166,1,1.024,0.3,False,None,Z05,r1,2021-05-04_21h55.11.494,subsecond_timing_v2,2021.1.2,Win32,59.82292414
space,0.867455,space,1.00385,,,ms_small,0,167,167,167,1,0.847,0.3,False,None,Z05,r1,2021-05-04_21h55.11.494,subsecond_timing_v2,2021.1.2,Win32,59.82292414
space,0.824945,space,0.79012,,,ms_small,0,168,168,168,1,0.741,0.3,False,None,Z05,r1,2021-05-04_21h55.11.494,subsecond_timing_v2,2021.1.2,Win32,59.82292414
space,0.17963,space,0.92509,,,ms_small,0,169,169,169,1,0.918,0.2,False,None,Z05,r1,2021-05-04_21h55.11.494,subsecond_timing_v2,2021.1.2,Win32,59.82292414
space,0.88608,space,0.9109,,,ms_small,0,170,170,170,1,0.776,0.1,False,None,Z05,r1,2021-05-04_21h55.11.494,subsecond_timing_v2,2021.1.2,Win32,59.82292414
space,0.70973,space,0.960385,,,ms_small,0,171,171,171,1,0.882,0.3,False,None,Z05,r1,2021-05-04_21h55.11.494,subsecond_timing_v2,2021.1.2,Win32,59.82292414
space,0.66129,space,0.526305,,,ms_small,0,172,172,172,1,0.741,0.1,False,None,Z05,r1,2021-05-04_21h55.11.494,subsecond_timing_v2,2021.1.2,Win32,59.82292414
space,0.65887,space,0.886675,,,ms_small,0,173,173,173,1,0.988,0.1,False,None,Z05,r1,2021-05-04_21h55.11.494,subsecond_timing_v2,2021.1.2,Win32,59.82292414
space,0.813015,space,0.81716,,,ms_small,0,174,174,174,1,0.706,0.2,False,None,Z05,r1,2021-05-04_21h55.11.494,subsecond_timing_v2,2021.1.2,Win32,59.82292414
space,0.539915,space,0.895875,,,ms_small,0,175,175,175,1,0.918,0.2,False,None,Z05,r1,2021-05-04_21h55.11.494,subsecond_timing_v2,2021.1.2,Win32,59.82292414
space,1.71393,space,1.154785,,,ms_small,0,176,176,176,1,0.953,0.2,False,None,Z05,r1,2021-05-04_21h55.11.494,subsecond_timing_v2,2021.1.2,Win32,59.82292414
space,0.989365,space,1.367285,,,ms_small,0,177,177,177,1,0.67,0.2,False,None,Z05,r1,2021-05-04_21h55.11.494,subsecond_timing_v2,2021.1.2,Win32,59.82292414
space,0.75488,space,1.10098,,,ms_small,0,178,178,178,1,0.847,0.3,False,None,Z05,r1,2021-05-04_21h55.11.494,subsecond_timing_v2,2021.1.2,Win32,59.82292414
space,0.60069,space,0.736595,,,ms_small,0,179,179,179,1,0.776,0.1,False,None,Z05,r1,2021-05-04_21h55.11.494,subsecond_timing_v2,2021.1.2,Win32,59.82292414
space,0.75515,space,0.705575,,,ms_small,0,180,180,180,1,0.812,0.1,False,None,Z05,r1,2021-05-04_21h55.11.494,subsecond_timing_v2,2021.1.2,Win32,59.82292414
space,0.731055,space,0.934485,,,ms_small,0,181,181,181,1,1.024,0.2,False,None,Z05,r1,2021-05-04_21h55.11.494,subsecond_timing_v2,2021.1.2,Win32,59.82292414
space,0.80329,space,0.728315,,,ms_small,0,182,182,182,1,0.706,0.3,False,None,Z05,r1,2021-05-04_21h55.11.494,subsecond_timing_v2,2021.1.2,Win32,59.82292414
space,0.73945,space,1.017195,,,ms_small,0,183,183,183,1,0.988,0.1,False,None,Z05,r1,2021-05-04_21h55.11.494,subsecond_timing_v2,2021.1.2,Win32,59.82292414
space,0.87212,space,0.989355,,,ms_small,0,184,184,184,1,1.024,0.3,False,None,Z05,r1,2021-05-04_21h55.11.494,subsecond_timing_v2,2021.1.2,Win32,59.82292414
space,0.73377,space,1.017515,,,ms_small,0,185,185,185,1,0.847,0.1,False,None,Z05,r1,2021-05-04_21h55.11.494,subsecond_timing_v2,2021.1.2,Win32,59.82292414
space,0.557845,space,0.817585,,,ms_small,0,186,186,186,1,0.741,0.1,False,None,Z05,r1,2021-05-04_21h55.11.494,subsecond_timing_v2,2021.1.2,Win32,59.82292414
space,0.859585,space,0.836245,,,ms_small,0,187,187,187,1,0.776,0.3,False,None,Z05,r1,2021-05-04_21h55.11.494,subsecond_timing_v2,2021.1.2,Win32,59.82292414
space,0.7072,space,1.002205,,,ms_small,0,188,188,188,1,0.812,0.3,False,None,Z05,r1,2021-05-04_21h55.11.494,subsecond_timing_v2,2021.1.2,Win32,59.82292414
space,0.850665,space,0.917235,,,ms_small,0,189,189,189,1,0.918,0.3,False,None,Z05,r1,2021-05-04_21h55.11.494,subsecond_timing_v2,2021.1.2,Win32,59.82292414
space,0.746555,space,0.684085,,,ms_small,0,190,190,190,1,0.67,0.1,False,None,Z05,r1,2021-05-04_21h55.11.494,subsecond_timing_v2,2021.1.2,Win32,59.82292414
space,0.857315,space,0.763645,,,ms_small,0,191,191,191,1,0.882,0.2,False,None,Z05,r1,2021-05-04_21h55.11.494,subsecond_timing_v2,2021.1.2,Win32,59.82292414
space,0.90076,space,0.80795,,,ms_small,0,192,192,192,1,0.953,0.1,False,None,Z05,r1,2021-05-04_21h55.11.494,subsecond_timing_v2,2021.1.2,Win32,59.82292414
space,0.779665,space,0.8338,,,ms_small,0,193,193,193,1,0.776,0.1,False,None,Z05,r1,2021-05-04_21h55.11.494,subsecond_timing_v2,2021.1.2,Win32,59.82292414
space,0.86714,space,0.82576,,,ms_small,0,194,194,194,1,0.988,0.3,False,None,Z05,r1,2021-05-04_21h55.11.494,subsecond_timing_v2,2021.1.2,Win32,59.82292414
space,0.744795,space,0.857,,,ms_small,0,195,195,195,1,0.953,0.1,False,None,Z05,r1,2021-05-04_21h55.11.494,subsecond_timing_v2,2021.1.2,Win32,59.82292414
space,0.80059,space,0.943425,,,ms_small,0,196,196,196,1,0.741,0.3,False,None,Z05,r1,2021-05-04_21h55.11.494,subsecond_timing_v2,2021.1.2,Win32,59.82292414
space,0.86257,space,0.93614,,,ms_small,0,197,197,197,1,0.67,0.3,False,None,Z05,r1,2021-05-04_21h55.11.494,subsecond_timing_v2,2021.1.2,Win32,59.82292414
space,0.75673,space,1.02832,,,ms_small,0,198,198,198,1,0.847,0.3,False,None,Z05,r1,2021-05-04_21h55.11.494,subsecond_timing_v2,2021.1.2,Win32,59.82292414
space,0.679055,space,0.96252,,,ms_small,0,199,199,199,1,0.882,0.2,False,None,Z05,r1,2021-05-04_21h55.11.494,subsecond_timing_v2,2021.1.2,Win32,59.82292414
space,0.7303,space,0.91166,,,ms_small,0,200,200,200,1,0.706,0.3,False,None,Z05,r1,2021-05-04_21h55.11.494,subsecond_timing_v2,2021.1.2,Win32,59.82292414
space,0.574385,space,1.010145,,,ms_small,0,201,201,201,1,0.812,0.1,False,None,Z05,r1,2021-05-04_21h55.11.494,subsecond_timing_v2,2021.1.2,Win32,59.82292414
space,2.740325,space,1.058025,,,ms_small,0,202,202,202,1,1.024,0.2,False,None,Z05,r1,2021-05-04_21h55.11.494,subsecond_timing_v2,2021.1.2,Win32,59.82292414
space,0.52127,space,0.78703,,,ms_small,0,203,203,203,1,0.918,0.1,False,None,Z05,r1,2021-05-04_21h55.11.494,subsecond_timing_v2,2021.1.2,Win32,59.82292414
space,6.250495,space,0.70972,,,ms_small,0,204,204,204,1,0.776,0.2,False,None,Z05,r1,2021-05-04_21h55.11.494,subsecond_timing_v2,2021.1.2,Win32,59.82292414
space,0.75368,space,0.971405,,,ms_small,0,205,205,205,1,0.67,0.1,False,None,Z05,r1,2021-05-04_21h55.11.494,subsecond_timing_v2,2021.1.2,Win32,59.82292414
space,0.56169,space,0.813955,,,ms_small,0,206,206,206,1,0.706,0.3,False,None,Z05,r1,2021-05-04_21h55.11.494,subsecond_timing_v2,2021.1.2,Win32,59.82292414
space,0.50063,space,0.65063,,,ms_small,0,207,207,207,1,0.988,0.2,False,None,Z05,r1,2021-05-04_21h55.11.494,subsecond_timing_v2,2021.1.2,Win32,59.82292414
space,0.57969,space,0.734645,,,ms_small,0,208,208,208,1,0.847,0.3,False,None,Z05,r1,2021-05-04_21h55.11.494,subsecond_timing_v2,2021.1.2,Win32,59.82292414
space,0.62801,space,0.806605,,,ms_small,0,209,209,209,1,0.953,0.2,False,None,Z05,r1,2021-05-04_21h55.11.494,subsecond_timing_v2,2021.1.2,Win32,59.82292414
space,0.662455,space,1.047765,,,ms_small,0,210,210,210,1,0.812,0.1,False,None,Z05,r1,2021-05-04_21h55.11.494,subsecond_timing_v2,2021.1.2,Win32,59.82292414
space,0.851775,space,0.90788,,,ms_small,0,211,211,211,1,0.918,0.1,False,None,Z05,r1,2021-05-04_21h55.11.494,subsecond_timing_v2,2021.1.2,Win32,59.82292414
space,0.76712,space,0.88381,,,ms_small,0,212,212,212,1,0.741,0.3,False,None,Z05,r1,2021-05-04_21h55.11.494,subsecond_timing_v2,2021.1.2,Win32,59.82292414
space,0.766775,space,0.85568,,,ms_small,0,213,213,213,1,0.882,0.3,False,None,Z05,r1,2021-05-04_21h55.11.494,subsecond_timing_v2,2021.1.2,Win32,59.82292414
space,0.85394,space,0.861765,,,ms_small,0,214,214,214,1,1.024,0.1,False,None,Z05,r1,2021-05-04_21h55.11.494,subsecond_timing_v2,2021.1.2,Win32,59.82292414
space,0.773735,space,0.94338,,,ms_small,0,215,215,215,1,1.024,0.2,False,None,Z05,r1,2021-05-04_21h55.11.494,subsecond_timing_v2,2021.1.2,Win32,59.82292414
space,0.752765,space,1.04568,,,ms_small,0,216,216,216,1,0.706,0.2,False,None,Z05,r1,2021-05-04_21h55.11.494,subsecond_timing_v2,2021.1.2,Win32,59.82292414
space,0.784755,space,0.94003,,,ms_small,0,217,217,217,1,0.882,0.1,False,None,Z05,r1,2021-05-04_21h55.11.494,subsecond_timing_v2,2021.1.2,Win32,59.82292414
space,0.734905,space,0.95972,,,ms_small,0,218,218,218,1,0.776,0.2,False,None,Z05,r1,2021-05-04_21h55.11.494,subsecond_timing_v2,2021.1.2,Win32,59.82292414
space,0.773085,space,1.177865,,,ms_small,0,219,219,219,1,0.847,0.2,False,None,Z05,r1,2021-05-04_21h55.11.494,subsecond_timing_v2,2021.1.2,Win32,59.82292414
space,0.91974,space,0.74097,,,ms_small,0,220,220,220,1,0.812,0.1,False,None,Z05,r1,2021-05-04_21h55.11.494,subsecond_timing_v2,2021.1.2,Win32,59.82292414
space,0.621635,space,1.05954,,,ms_small,0,221,221,221,1,0.988,0.1,False,None,Z05,r1,2021-05-04_21h55.11.494,subsecond_timing_v2,2021.1.2,Win32,59.82292414
space,0.713015,space,1.011325,,,ms_small,0,222,222,222,1,0.918,0.1,False,None,Z05,r1,2021-05-04_21h55.11.494,subsecond_timing_v2,2021.1.2,Win32,59.82292414
space,0.75911,space,1.141415,,,ms_small,0,223,223,223,1,0.67,0.2,False,None,Z05,r1,2021-05-04_21h55.11.494,subsecond_timing_v2,2021.1.2,Win32,59.82292414
space,0.66893,space,0.587065,,,ms_small,0,224,224,224,1,0.741,0.3,False,None,Z05,r1,2021-05-04_21h55.11.494,subsecond_timing_v2,2021.1.2,Win32,59.82292414
space,0.689225,space,0.931085,,,ms_small,0,225,225,225,1,0.953,0.1,False,None,Z05,r1,2021-05-04_21h55.11.494,subsecond_timing_v2,2021.1.2,Win32,59.82292414
