key_resp_start.keys,key_resp_start.rt,key_resp_stop.keys,key_resp_stop.rt,feedback_range,hit,stimulus_range,trials.thisRepN,trials.thisTrialN,trials.thisN,trials.thisIndex,trials.ran,stimulus_duration,onset,feedback,feedback_range_fromfile,participant,session,date,expName,psychopyVersion,OS,frameRate
space,1.37734,space,0.683845,0.3,FALSE,Training,0,0,0,0,1,1,0.3,True,0.3,Z07,r1,2021-05-03_13h05.34.126,subsecond_timing_v2,2021.1.2,Win32,60.03121623
space,0.856565,space,0.542275,0.3,TRUE,Training,0,1,1,1,1,0.75,0.1,True,0.3,Z07,r1,2021-05-03_13h05.34.126,subsecond_timing_v2,2021.1.2,Win32,60.03121623
space,0.684315,space,0.4655,0.3,TRUE,Training,0,2,2,2,1,0.5,0.1,True,0.3,Z07,r1,2021-05-03_13h05.34.126,subsecond_timing_v2,2021.1.2,Win32,60.03121623
space,0.67683,space,0.482405,0.3,TRUE,Training,0,3,3,3,1,0.5,0.2,True,0.3,Z07,r1,2021-05-03_13h05.34.126,subsecond_timing_v2,2021.1.2,Win32,60.03121623
space,0.733385,space,0.517655,0.3,FALSE,Training,0,4,4,4,1,0.75,0.2,True,0.3,Z07,r1,2021-05-03_13h05.34.126,subsecond_timing_v2,2021.1.2,Win32,60.03121623
space,0.98486,space,0.577195,0.3,FALSE,Training,0,5,5,5,1,1,0.3,True,0.3,Z07,r1,2021-05-03_13h05.34.126,subsecond_timing_v2,2021.1.2,Win32,60.03121623
space,0.721785,space,0.540535,,,ms_small,0,6,6,6,1,0.706,0.2,False,None,Z07,r1,2021-05-03_13h05.34.126,subsecond_timing_v2,2021.1.2,Win32,60.03121623
space,0.734815,space,0.60913,,,ms_small,0,7,7,7,1,0.812,0.3,False,None,Z07,r1,2021-05-03_13h05.34.126,subsecond_timing_v2,2021.1.2,Win32,60.03121623
space,0.745165,space,0.69856,,,ms_small,0,8,8,8,1,0.847,0.1,False,None,Z07,r1,2021-05-03_13h05.34.126,subsecond_timing_v2,2021.1.2,Win32,60.03121623
space,0.79596,space,0.71684,,,ms_small,0,9,9,9,1,0.67,0.3,False,None,Z07,r1,2021-05-03_13h05.34.126,subsecond_timing_v2,2021.1.2,Win32,60.03121623
space,0.801835,space,0.909325,,,ms_small,0,10,10,10,1,0.988,0.1,False,None,Z07,r1,2021-05-03_13h05.34.126,subsecond_timing_v2,2021.1.2,Win32,60.03121623
space,0.78092,space,0.949995,,,ms_small,0,11,11,11,1,0.953,0.1,False,None,Z07,r1,2021-05-03_13h05.34.126,subsecond_timing_v2,2021.1.2,Win32,60.03121623
space,0.82839,space,0.72982,,,ms_small,0,12,12,12,1,0.882,0.3,False,None,Z07,r1,2021-05-03_13h05.34.126,subsecond_timing_v2,2021.1.2,Win32,60.03121623
space,0.873615,space,0.700475,,,ms_small,0,13,13,13,1,0.918,0.1,False,None,Z07,r1,2021-05-03_13h05.34.126,subsecond_timing_v2,2021.1.2,Win32,60.03121623
space,0.831165,space,0.716575,,,ms_small,0,14,14,14,1,0.776,0.2,False,None,Z07,r1,2021-05-03_13h05.34.126,subsecond_timing_v2,2021.1.2,Win32,60.03121623
space,0.82761,space,0.736735,,,ms_small,0,15,15,15,1,0.741,0.3,False,None,Z07,r1,2021-05-03_13h05.34.126,subsecond_timing_v2,2021.1.2,Win32,60.03121623
space,0.933505,space,0.85294,,,ms_small,0,16,16,16,1,1.024,0.3,False,None,Z07,r1,2021-05-03_13h05.34.126,subsecond_timing_v2,2021.1.2,Win32,60.03121623
space,0.895575,space,0.77195,,,ms_small,0,17,17,17,1,0.67,0.1,False,None,Z07,r1,2021-05-03_13h05.34.126,subsecond_timing_v2,2021.1.2,Win32,60.03121623
space,0.678165,space,0.64169,,,ms_small,0,18,18,18,1,0.812,0.3,False,None,Z07,r1,2021-05-03_13h05.34.126,subsecond_timing_v2,2021.1.2,Win32,60.03121623
space,0.8355,space,0.719885,,,ms_small,0,19,19,19,1,0.953,0.3,False,None,Z07,r1,2021-05-03_13h05.34.126,subsecond_timing_v2,2021.1.2,Win32,60.03121623
space,0.94167,space,0.76653,,,ms_small,0,20,20,20,1,0.776,0.1,False,None,Z07,r1,2021-05-03_13h05.34.126,subsecond_timing_v2,2021.1.2,Win32,60.03121623
space,0.855305,space,0.70729,,,ms_small,0,21,21,21,1,0.741,0.2,False,None,Z07,r1,2021-05-03_13h05.34.126,subsecond_timing_v2,2021.1.2,Win32,60.03121623
space,0.851325,space,0.86482,,,ms_small,0,22,22,22,1,0.847,0.2,False,None,Z07,r1,2021-05-03_13h05.34.126,subsecond_timing_v2,2021.1.2,Win32,60.03121623
space,0.77358,space,0.924975,,,ms_small,0,23,23,23,1,1.024,0.1,False,None,Z07,r1,2021-05-03_13h05.34.126,subsecond_timing_v2,2021.1.2,Win32,60.03121623
space,0.8,space,1.04477,,,ms_small,0,24,24,24,1,0.882,0.3,False,None,Z07,r1,2021-05-03_13h05.34.126,subsecond_timing_v2,2021.1.2,Win32,60.03121623
space,0.82143,space,0.95455,,,ms_small,0,25,25,25,1,0.988,0.1,False,None,Z07,r1,2021-05-03_13h05.34.126,subsecond_timing_v2,2021.1.2,Win32,60.03121623
space,0.950125,space,0.76587,,,ms_small,0,26,26,26,1,0.706,0.2,False,None,Z07,r1,2021-05-03_13h05.34.126,subsecond_timing_v2,2021.1.2,Win32,60.03121623
space,0.723505,space,0.82861,,,ms_small,0,27,27,27,1,0.918,0.3,False,None,Z07,r1,2021-05-03_13h05.34.126,subsecond_timing_v2,2021.1.2,Win32,60.03121623
space,0.64105,space,0.60753,,,ms_small,0,28,28,28,1,0.706,0.1,False,None,Z07,r1,2021-05-03_13h05.34.126,subsecond_timing_v2,2021.1.2,Win32,60.03121623
space,0.658085,space,0.782,,,ms_small,0,29,29,29,1,0.918,0.1,False,None,Z07,r1,2021-05-03_13h05.34.126,subsecond_timing_v2,2021.1.2,Win32,60.03121623
space,0.664915,space,0.70125,,,ms_small,0,30,30,30,1,0.67,0.2,False,None,Z07,r1,2021-05-03_13h05.34.126,subsecond_timing_v2,2021.1.2,Win32,60.03121623
space,0.426615,space,1.00781,,,ms_small,0,31,31,31,1,0.988,0.1,False,None,Z07,r1,2021-05-03_13h05.34.126,subsecond_timing_v2,2021.1.2,Win32,60.03121623
space,0.51919,space,1.1286,,,ms_small,0,32,32,32,1,0.953,0.2,False,None,Z07,r1,2021-05-03_13h05.34.126,subsecond_timing_v2,2021.1.2,Win32,60.03121623
space,0.4858,space,0.865055,,,ms_small,0,33,33,33,1,0.776,0.1,False,None,Z07,r1,2021-05-03_13h05.34.126,subsecond_timing_v2,2021.1.2,Win32,60.03121623
space,0.405715,space,1.051425,,,ms_small,0,34,34,34,1,0.847,0.1,False,None,Z07,r1,2021-05-03_13h05.34.126,subsecond_timing_v2,2021.1.2,Win32,60.03121623
space,0.617745,space,1.038725,,,ms_small,0,35,35,35,1,0.741,0.2,False,None,Z07,r1,2021-05-03_13h05.34.126,subsecond_timing_v2,2021.1.2,Win32,60.03121623
space,0.638685,space,0.97269,,,ms_small,0,36,36,36,1,0.812,0.1,False,None,Z07,r1,2021-05-03_13h05.34.126,subsecond_timing_v2,2021.1.2,Win32,60.03121623
space,0.530805,space,0.835975,,,ms_small,0,37,37,37,1,0.882,0.1,False,None,Z07,r1,2021-05-03_13h05.34.126,subsecond_timing_v2,2021.1.2,Win32,60.03121623
space,0.53922,space,0.981655,,,ms_small,0,38,38,38,1,1.024,0.3,False,None,Z07,r1,2021-05-03_13h05.34.126,subsecond_timing_v2,2021.1.2,Win32,60.03121623
space,0.6728,space,0.81221,,,ms_small,0,39,39,39,1,0.847,0.2,False,None,Z07,r1,2021-05-03_13h05.34.126,subsecond_timing_v2,2021.1.2,Win32,60.03121623
space,0.6609,space,0.88181,,,ms_small,0,40,40,40,1,0.918,0.2,False,None,Z07,r1,2021-05-03_13h05.34.126,subsecond_timing_v2,2021.1.2,Win32,60.03121623
space,0.67252,space,0.78941,,,ms_small,0,41,41,41,1,0.953,0.1,False,None,Z07,r1,2021-05-03_13h05.34.126,subsecond_timing_v2,2021.1.2,Win32,60.03121623
space,0.58677,space,0.691295,,,ms_small,0,42,42,42,1,0.882,0.3,False,None,Z07,r1,2021-05-03_13h05.34.126,subsecond_timing_v2,2021.1.2,Win32,60.03121623
space,0.66963,space,0.6729,,,ms_small,0,43,43,43,1,0.741,0.2,False,None,Z07,r1,2021-05-03_13h05.34.126,subsecond_timing_v2,2021.1.2,Win32,60.03121623
space,0.7408,space,0.82106,,,ms_small,0,44,44,44,1,0.67,0.3,False,None,Z07,r1,2021-05-03_13h05.34.126,subsecond_timing_v2,2021.1.2,Win32,60.03121623
space,0.72194,space,0.626905,,,ms_small,0,45,45,45,1,0.812,0.2,False,None,Z07,r1,2021-05-03_13h05.34.126,subsecond_timing_v2,2021.1.2,Win32,60.03121623
space,0.85883,space,0.90298,,,ms_small,0,46,46,46,1,1.024,0.3,False,None,Z07,r1,2021-05-03_13h05.34.126,subsecond_timing_v2,2021.1.2,Win32,60.03121623
space,0.768415,space,0.73518,,,ms_small,0,47,47,47,1,0.706,0.3,False,None,Z07,r1,2021-05-03_13h05.34.126,subsecond_timing_v2,2021.1.2,Win32,60.03121623
space,0.75986,space,0.63977,,,ms_small,0,48,48,48,1,0.988,0.2,False,None,Z07,r1,2021-05-03_13h05.34.126,subsecond_timing_v2,2021.1.2,Win32,60.03121623
space,0.58564,space,0.72098,,,ms_small,0,49,49,49,1,0.776,0.1,False,None,Z07,r1,2021-05-03_13h05.34.126,subsecond_timing_v2,2021.1.2,Win32,60.03121623
space,0.556535,space,0.883995,,,ms_small,0,50,50,50,1,0.988,0.1,False,None,Z07,r1,2021-05-03_13h05.34.126,subsecond_timing_v2,2021.1.2,Win32,60.03121623
space,0.766595,space,0.62315,,,ms_small,0,51,51,51,1,0.706,0.3,False,None,Z07,r1,2021-05-03_13h05.34.126,subsecond_timing_v2,2021.1.2,Win32,60.03121623
space,0.57167,space,0.8429,,,ms_small,0,52,52,52,1,0.953,0.2,False,None,Z07,r1,2021-05-03_13h05.34.126,subsecond_timing_v2,2021.1.2,Win32,60.03121623
space,0.66122,space,0.969315,,,ms_small,0,53,53,53,1,0.847,0.2,False,None,Z07,r1,2021-05-03_13h05.34.126,subsecond_timing_v2,2021.1.2,Win32,60.03121623
space,0.61698,space,0.894095,,,ms_small,0,54,54,54,1,0.918,0.3,False,None,Z07,r1,2021-05-03_13h05.34.126,subsecond_timing_v2,2021.1.2,Win32,60.03121623
space,0.572715,space,0.76872,,,ms_small,0,55,55,55,1,0.741,0.1,False,None,Z07,r1,2021-05-03_13h05.34.126,subsecond_timing_v2,2021.1.2,Win32,60.03121623
space,0.83575,space,0.722005,,,ms_small,0,56,56,56,1,0.67,0.1,False,None,Z07,r1,2021-05-03_13h05.34.126,subsecond_timing_v2,2021.1.2,Win32,60.03121623
space,0.586195,space,0.88868,,,ms_small,0,57,57,57,1,0.776,0.2,False,None,Z07,r1,2021-05-03_13h05.34.126,subsecond_timing_v2,2021.1.2,Win32,60.03121623
space,0.57193,space,1.018975,,,ms_small,0,58,58,58,1,0.882,0.1,False,None,Z07,r1,2021-05-03_13h05.34.126,subsecond_timing_v2,2021.1.2,Win32,60.03121623
space,0.551645,space,0.94321,,,ms_small,0,59,59,59,1,0.812,0.2,False,None,Z07,r1,2021-05-03_13h05.34.126,subsecond_timing_v2,2021.1.2,Win32,60.03121623
space,0.526595,space,1.11191,,,ms_small,0,60,60,60,1,1.024,0.2,False,None,Z07,r1,2021-05-03_13h05.34.126,subsecond_timing_v2,2021.1.2,Win32,60.03121623
space,0.43403,space,1.152405,,,ms_small,0,61,61,61,1,0.847,0.3,False,None,Z07,r1,2021-05-03_13h05.34.126,subsecond_timing_v2,2021.1.2,Win32,60.03121623
space,0.560535,space,0.584725,,,ms_small,0,62,62,62,1,0.67,0.1,False,None,Z07,r1,2021-05-03_13h05.34.126,subsecond_timing_v2,2021.1.2,Win32,60.03121623
space,0.402935,space,1.152615,,,ms_small,0,63,63,63,1,0.988,0.3,False,None,Z07,r1,2021-05-03_13h05.34.126,subsecond_timing_v2,2021.1.2,Win32,60.03121623
space,0.692145,space,0.918365,,,ms_small,0,64,64,64,1,0.812,0.1,False,None,Z07,r1,2021-05-03_13h05.34.126,subsecond_timing_v2,2021.1.2,Win32,60.03121623
space,0.45019,space,1.172245,,,ms_small,0,65,65,65,1,0.882,0.3,False,None,Z07,r1,2021-05-03_13h05.34.126,subsecond_timing_v2,2021.1.2,Win32,60.03121623
space,0.578575,space,1.44135,,,ms_small,0,66,66,66,1,0.918,0.1,False,None,Z07,r1,2021-05-03_13h05.34.126,subsecond_timing_v2,2021.1.2,Win32,60.03121623
space,0.624825,space,1.062295,,,ms_small,0,67,67,67,1,1.024,0.1,False,None,Z07,r1,2021-05-03_13h05.34.126,subsecond_timing_v2,2021.1.2,Win32,60.03121623
space,0.699975,space,1.07645,,,ms_small,0,68,68,68,1,0.776,0.2,False,None,Z07,r1,2021-05-03_13h05.34.126,subsecond_timing_v2,2021.1.2,Win32,60.03121623
space,0.725005,space,1.015145,,,ms_small,0,69,69,69,1,0.953,0.1,False,None,Z07,r1,2021-05-03_13h05.34.126,subsecond_timing_v2,2021.1.2,Win32,60.03121623
space,0.70684,space,0.740755,,,ms_small,0,70,70,70,1,0.706,0.1,False,None,Z07,r1,2021-05-03_13h05.34.126,subsecond_timing_v2,2021.1.2,Win32,60.03121623
space,0.66707,space,0.63199,,,ms_small,0,71,71,71,1,0.741,0.3,False,None,Z07,r1,2021-05-03_13h05.34.126,subsecond_timing_v2,2021.1.2,Win32,60.03121623
space,0.75164,space,0.839455,,,ms_small,0,72,72,72,1,0.882,0.2,False,None,Z07,r1,2021-05-03_13h05.34.126,subsecond_timing_v2,2021.1.2,Win32,60.03121623
space,0.594515,space,1.10504,,,ms_small,0,73,73,73,1,0.918,0.3,False,None,Z07,r1,2021-05-03_13h05.34.126,subsecond_timing_v2,2021.1.2,Win32,60.03121623
space,0.60294,space,0.857,,,ms_small,0,74,74,74,1,0.988,0.2,False,None,Z07,r1,2021-05-03_13h05.34.126,subsecond_timing_v2,2021.1.2,Win32,60.03121623
space,0.733485,space,0.40561,,,ms_small,0,75,75,75,1,0.67,0.1,False,None,Z07,r1,2021-05-03_13h05.34.126,subsecond_timing_v2,2021.1.2,Win32,60.03121623
space,0.671925,space,0.859495,,,ms_small,0,76,76,76,1,0.776,0.3,False,None,Z07,r1,2021-05-03_13h05.34.126,subsecond_timing_v2,2021.1.2,Win32,60.03121623
space,0.66121,space,0.60907,,,ms_small,0,77,77,77,1,0.847,0.2,False,None,Z07,r1,2021-05-03_13h05.34.126,subsecond_timing_v2,2021.1.2,Win32,60.03121623
space,0.925615,space,0.9187,,,ms_small,0,78,78,78,1,1.024,0.2,False,None,Z07,r1,2021-05-03_13h05.34.126,subsecond_timing_v2,2021.1.2,Win32,60.03121623
space,0.771455,space,0.53869,,,ms_small,0,79,79,79,1,0.812,0.3,False,None,Z07,r1,2021-05-03_13h05.34.126,subsecond_timing_v2,2021.1.2,Win32,60.03121623
space,1.152115,space,0.576595,,,ms_small,0,80,80,80,1,0.953,0.1,False,None,Z07,r1,2021-05-03_13h05.34.126,subsecond_timing_v2,2021.1.2,Win32,60.03121623
space,0.65131,space,0.433445,,,ms_small,0,81,81,81,1,0.706,0.2,False,None,Z07,r1,2021-05-03_13h05.34.126,subsecond_timing_v2,2021.1.2,Win32,60.03121623
space,0.47366,space,0.516435,,,ms_small,0,82,82,82,1,0.741,0.3,False,None,Z07,r1,2021-05-03_13h05.34.126,subsecond_timing_v2,2021.1.2,Win32,60.03121623
space,0.6045,space,0.54641,,,ms_small,0,83,83,83,1,0.706,0.1,False,None,Z07,r1,2021-05-03_13h05.34.126,subsecond_timing_v2,2021.1.2,Win32,60.03121623
space,0.778175,space,0.75326,,,ms_small,0,84,84,84,1,0.812,0.2,False,None,Z07,r1,2021-05-03_13h05.34.126,subsecond_timing_v2,2021.1.2,Win32,60.03121623
space,0.628935,space,0.7703,,,ms_small,0,85,85,85,1,0.882,0.2,False,None,Z07,r1,2021-05-03_13h05.34.126,subsecond_timing_v2,2021.1.2,Win32,60.03121623
space,0.702245,space,0.62401,,,ms_small,0,86,86,86,1,0.776,0.1,False,None,Z07,r1,2021-05-03_13h05.34.126,subsecond_timing_v2,2021.1.2,Win32,60.03121623
space,0.513225,space,0.994885,,,ms_small,0,87,87,87,1,0.988,0.3,False,None,Z07,r1,2021-05-03_13h05.34.126,subsecond_timing_v2,2021.1.2,Win32,60.03121623
space,0.686015,space,0.672765,,,ms_small,0,88,88,88,1,0.67,0.2,False,None,Z07,r1,2021-05-03_13h05.34.126,subsecond_timing_v2,2021.1.2,Win32,60.03121623
space,0.633755,space,0.670165,,,ms_small,0,89,89,89,1,0.741,0.3,False,None,Z07,r1,2021-05-03_13h05.34.126,subsecond_timing_v2,2021.1.2,Win32,60.03121623
space,0.73599,space,0.608725,,,ms_small,0,90,90,90,1,0.918,0.1,False,None,Z07,r1,2021-05-03_13h05.34.126,subsecond_timing_v2,2021.1.2,Win32,60.03121623
space,0.768355,space,1.03982,,,ms_small,0,91,91,91,1,0.847,0.3,False,None,Z07,r1,2021-05-03_13h05.34.126,subsecond_timing_v2,2021.1.2,Win32,60.03121623
space,0.54154,space,0.615165,,,ms_small,0,92,92,92,1,0.953,0.2,False,None,Z07,r1,2021-05-03_13h05.34.126,subsecond_timing_v2,2021.1.2,Win32,60.03121623
space,0.289995,space,1.19644,,,ms_small,0,93,93,93,1,1.024,0.2,False,None,Z07,r1,2021-05-03_13h05.34.126,subsecond_timing_v2,2021.1.2,Win32,60.03121623
space,0.53953,space,0.596225,,,ms_small,0,94,94,94,1,0.882,0.1,False,None,Z07,r1,2021-05-03_13h05.34.126,subsecond_timing_v2,2021.1.2,Win32,60.03121623
space,0.74301,space,0.58352,,,ms_small,0,95,95,95,1,0.67,0.2,False,None,Z07,r1,2021-05-03_13h05.34.126,subsecond_timing_v2,2021.1.2,Win32,60.03121623
space,0.77292,space,0.516355,,,ms_small,0,96,96,96,1,0.918,0.3,False,None,Z07,r1,2021-05-03_13h05.34.126,subsecond_timing_v2,2021.1.2,Win32,60.03121623
space,0.7125,space,0.54636,,,ms_small,0,97,97,97,1,0.706,0.2,False,None,Z07,r1,2021-05-03_13h05.34.126,subsecond_timing_v2,2021.1.2,Win32,60.03121623
space,0.870455,space,0.578055,,,ms_small,0,98,98,98,1,0.988,0.1,False,None,Z07,r1,2021-05-03_13h05.34.126,subsecond_timing_v2,2021.1.2,Win32,60.03121623
space,0.6631,space,0.58718,,,ms_small,0,99,99,99,1,0.741,0.3,False,None,Z07,r1,2021-05-03_13h05.34.126,subsecond_timing_v2,2021.1.2,Win32,60.03121623
space,0.70421,space,0.562225,,,ms_small,0,100,100,100,1,1.024,0.2,False,None,Z07,r1,2021-05-03_13h05.34.126,subsecond_timing_v2,2021.1.2,Win32,60.03121623
space,0.67459,space,0.62196,,,ms_small,0,101,101,101,1,0.776,0.2,False,None,Z07,r1,2021-05-03_13h05.34.126,subsecond_timing_v2,2021.1.2,Win32,60.03121623
space,0.60194,space,0.616085,,,ms_small,0,102,102,102,1,0.812,0.2,False,None,Z07,r1,2021-05-03_13h05.34.126,subsecond_timing_v2,2021.1.2,Win32,60.03121623
space,0.502175,space,0.55218,,,ms_small,0,103,103,103,1,0.953,0.2,False,None,Z07,r1,2021-05-03_13h05.34.126,subsecond_timing_v2,2021.1.2,Win32,60.03121623
space,1.05002,space,0.77387,,,ms_small,0,104,104,104,1,0.847,0.1,False,None,Z07,r1,2021-05-03_13h05.34.126,subsecond_timing_v2,2021.1.2,Win32,60.03121623
space,0.55868,space,0.720245,,,ms_small,0,105,105,105,1,0.706,0.2,False,None,Z07,r1,2021-05-03_13h05.34.126,subsecond_timing_v2,2021.1.2,Win32,60.03121623
space,0.775005,space,0.72644,,,ms_small,0,106,106,106,1,0.741,0.1,False,None,Z07,r1,2021-05-03_13h05.34.126,subsecond_timing_v2,2021.1.2,Win32,60.03121623
space,0.640165,space,0.62867,,,ms_small,0,107,107,107,1,0.67,0.1,False,None,Z07,r1,2021-05-03_13h05.34.126,subsecond_timing_v2,2021.1.2,Win32,60.03121623
space,0.923895,space,0.686665,,,ms_small,0,108,108,108,1,0.847,0.1,False,None,Z07,r1,2021-05-03_13h05.34.126,subsecond_timing_v2,2021.1.2,Win32,60.03121623
space,0.758885,space,0.75888,,,ms_small,0,109,109,109,1,0.812,0.2,False,None,Z07,r1,2021-05-03_13h05.34.126,subsecond_timing_v2,2021.1.2,Win32,60.03121623
space,0.739345,space,0.67585,,,ms_small,0,110,110,110,1,0.776,0.3,False,None,Z07,r1,2021-05-03_13h05.34.126,subsecond_timing_v2,2021.1.2,Win32,60.03121623
space,0.69095,space,0.86938,,,ms_small,0,111,111,111,1,0.988,0.3,False,None,Z07,r1,2021-05-03_13h05.34.126,subsecond_timing_v2,2021.1.2,Win32,60.03121623
space,0.687325,space,0.953905,,,ms_small,0,112,112,112,1,0.918,0.1,False,None,Z07,r1,2021-05-03_13h05.34.126,subsecond_timing_v2,2021.1.2,Win32,60.03121623
space,0.81849,space,0.87151,,,ms_small,0,113,113,113,1,0.882,0.1,False,None,Z07,r1,2021-05-03_13h05.34.126,subsecond_timing_v2,2021.1.2,Win32,60.03121623
space,0.65778,space,0.96586,,,ms_small,0,114,114,114,1,1.024,0.2,False,None,Z07,r1,2021-05-03_13h05.34.126,subsecond_timing_v2,2021.1.2,Win32,60.03121623
space,0.86196,space,1.03359,,,ms_small,0,115,115,115,1,0.953,0.2,False,None,Z07,r1,2021-05-03_13h05.34.126,subsecond_timing_v2,2021.1.2,Win32,60.03121623
space,0.584755,space,1.134985,,,ms_small,0,116,116,116,1,0.847,0.3,False,None,Z07,r1,2021-05-03_13h05.34.126,subsecond_timing_v2,2021.1.2,Win32,60.03121623
space,0.9003,space,0.95038,,,ms_small,0,117,117,117,1,0.882,0.2,False,None,Z07,r1,2021-05-03_13h05.34.126,subsecond_timing_v2,2021.1.2,Win32,60.03121623
space,0.5368,space,1.25187,,,ms_small,0,118,118,118,1,1.024,0.1,False,None,Z07,r1,2021-05-03_13h05.34.126,subsecond_timing_v2,2021.1.2,Win32,60.03121623
space,0.62298,space,1.016665,,,ms_small,0,119,119,119,1,0.706,0.2,False,None,Z07,r1,2021-05-03_13h05.34.126,subsecond_timing_v2,2021.1.2,Win32,60.03121623
space,0.77766,space,1.152895,,,ms_small,0,120,120,120,1,0.918,0.1,False,None,Z07,r1,2021-05-03_13h05.34.126,subsecond_timing_v2,2021.1.2,Win32,60.03121623
space,0.4216,space,0.79461,,,ms_small,0,121,121,121,1,0.776,0.1,False,None,Z07,r1,2021-05-03_13h05.34.126,subsecond_timing_v2,2021.1.2,Win32,60.03121623
space,0.646665,space,1.013065,,,ms_small,0,122,122,122,1,0.953,0.3,False,None,Z07,r1,2021-05-03_13h05.34.126,subsecond_timing_v2,2021.1.2,Win32,60.03121623
space,0.785365,space,0.953425,,,ms_small,0,123,123,123,1,0.67,0.1,False,None,Z07,r1,2021-05-03_13h05.34.126,subsecond_timing_v2,2021.1.2,Win32,60.03121623
space,0.663045,space,0.995125,,,ms_small,0,124,124,124,1,0.812,0.2,False,None,Z07,r1,2021-05-03_13h05.34.126,subsecond_timing_v2,2021.1.2,Win32,60.03121623
space,0.737645,space,1.09042,,,ms_small,0,125,125,125,1,0.988,0.2,False,None,Z07,r1,2021-05-03_13h05.34.126,subsecond_timing_v2,2021.1.2,Win32,60.03121623
space,0.562875,space,0.674805,,,ms_small,0,126,126,126,1,0.741,0.3,False,None,Z07,r1,2021-05-03_13h05.34.126,subsecond_timing_v2,2021.1.2,Win32,60.03121623
space,0.783425,space,0.756915,,,ms_small,0,127,127,127,1,0.67,0.1,False,None,Z07,r1,2021-05-03_13h05.34.126,subsecond_timing_v2,2021.1.2,Win32,60.03121623
space,0.753515,space,1.25914,,,ms_small,0,128,128,128,1,0.776,0.3,False,None,Z07,r1,2021-05-03_13h05.34.126,subsecond_timing_v2,2021.1.2,Win32,60.03121623
space,1.15921,space,0.92752,,,ms_small,0,129,129,129,1,0.847,0.1,False,None,Z07,r1,2021-05-03_13h05.34.126,subsecond_timing_v2,2021.1.2,Win32,60.03121623
space,1.27593,space,0.79106,,,ms_small,0,130,130,130,1,0.812,0.1,False,None,Z07,r1,2021-05-03_13h05.34.126,subsecond_timing_v2,2021.1.2,Win32,60.03121623
space,0.757715,space,0.782175,,,ms_small,0,131,131,131,1,0.882,0.1,False,None,Z07,r1,2021-05-03_13h05.34.126,subsecond_timing_v2,2021.1.2,Win32,60.03121623
space,0.80131,space,0.640915,,,ms_small,0,132,132,132,1,1.024,0.2,False,None,Z07,r1,2021-05-03_13h05.34.126,subsecond_timing_v2,2021.1.2,Win32,60.03121623
space,0.80251,space,0.76841,,,ms_small,0,133,133,133,1,0.953,0.3,False,None,Z07,r1,2021-05-03_13h05.34.126,subsecond_timing_v2,2021.1.2,Win32,60.03121623
space,0.81694,space,0.74865,,,ms_small,0,134,134,134,1,0.988,0.2,False,None,Z07,r1,2021-05-03_13h05.34.126,subsecond_timing_v2,2021.1.2,Win32,60.03121623
space,0.85232,space,0.64844,,,ms_small,0,135,135,135,1,0.706,0.1,False,None,Z07,r1,2021-05-03_13h05.34.126,subsecond_timing_v2,2021.1.2,Win32,60.03121623
space,0.61834,space,1.04915,,,ms_small,0,136,136,136,1,0.918,0.1,False,None,Z07,r1,2021-05-03_13h05.34.126,subsecond_timing_v2,2021.1.2,Win32,60.03121623
space,0.705415,space,0.683565,,,ms_small,0,137,137,137,1,0.741,0.1,False,None,Z07,r1,2021-05-03_13h05.34.126,subsecond_timing_v2,2021.1.2,Win32,60.03121623
space,0.459785,space,0.727645,,,ms_small,0,138,138,138,1,0.741,0.3,False,None,Z07,r1,2021-05-03_13h05.34.126,subsecond_timing_v2,2021.1.2,Win32,60.03121623
space,0.79282,space,0.673225,,,ms_small,0,139,139,139,1,0.988,0.2,False,None,Z07,r1,2021-05-03_13h05.34.126,subsecond_timing_v2,2021.1.2,Win32,60.03121623
space,0.86166,space,0.689495,,,ms_small,0,140,140,140,1,0.812,0.3,False,None,Z07,r1,2021-05-03_13h05.34.126,subsecond_timing_v2,2021.1.2,Win32,60.03121623
space,0.638715,space,0.90894,,,ms_small,0,141,141,141,1,0.918,0.2,False,None,Z07,r1,2021-05-03_13h05.34.126,subsecond_timing_v2,2021.1.2,Win32,60.03121623
space,0.771125,space,0.77062,,,ms_small,0,142,142,142,1,0.847,0.2,False,None,Z07,r1,2021-05-03_13h05.34.126,subsecond_timing_v2,2021.1.2,Win32,60.03121623
space,0.72685,space,0.696245,,,ms_small,0,143,143,143,1,0.953,0.1,False,None,Z07,r1,2021-05-03_13h05.34.126,subsecond_timing_v2,2021.1.2,Win32,60.03121623
space,0.687055,space,0.70766,,,ms_small,0,144,144,144,1,0.776,0.3,False,None,Z07,r1,2021-05-03_13h05.34.126,subsecond_timing_v2,2021.1.2,Win32,60.03121623
space,0.691245,space,0.949755,,,ms_small,0,145,145,145,1,0.706,0.3,False,None,Z07,r1,2021-05-03_13h05.34.126,subsecond_timing_v2,2021.1.2,Win32,60.03121623
space,0.42422,space,1.245265,,,ms_small,0,146,146,146,1,1.024,0.1,False,None,Z07,r1,2021-05-03_13h05.34.126,subsecond_timing_v2,2021.1.2,Win32,60.03121623
space,0.4625,space,1.13172,,,ms_small,0,147,147,147,1,0.882,0.2,False,None,Z07,r1,2021-05-03_13h05.34.126,subsecond_timing_v2,2021.1.2,Win32,60.03121623
space,0.46774,space,1.158445,,,ms_small,0,148,148,148,1,0.67,0.3,False,None,Z07,r1,2021-05-03_13h05.34.126,subsecond_timing_v2,2021.1.2,Win32,60.03121623
space,0.56724,space,0.59885,,,ms_small,0,149,149,149,1,0.67,0.3,False,None,Z07,r1,2021-05-03_13h05.34.126,subsecond_timing_v2,2021.1.2,Win32,60.03121623
space,0.467095,space,0.693385,,,ms_small,0,150,150,150,1,0.741,0.3,False,None,Z07,r1,2021-05-03_13h05.34.126,subsecond_timing_v2,2021.1.2,Win32,60.03121623
space,0.686335,space,0.744975,,,ms_small,0,151,151,151,1,0.918,0.1,False,None,Z07,r1,2021-05-03_13h05.34.126,subsecond_timing_v2,2021.1.2,Win32,60.03121623
space,0.65687,space,0.59663,,,ms_small,0,152,152,152,1,0.706,0.3,False,None,Z07,r1,2021-05-03_13h05.34.126,subsecond_timing_v2,2021.1.2,Win32,60.03121623
space,0.435385,space,0.97568,,,ms_small,0,153,153,153,1,0.988,0.2,False,None,Z07,r1,2021-05-03_13h05.34.126,subsecond_timing_v2,2021.1.2,Win32,60.03121623
space,0.644925,space,0.577385,,,ms_small,0,154,154,154,1,0.847,0.2,False,None,Z07,r1,2021-05-03_13h05.34.126,subsecond_timing_v2,2021.1.2,Win32,60.03121623
space,0.54136,space,0.7032,,,ms_small,0,155,155,155,1,0.776,0.3,False,None,Z07,r1,2021-05-03_13h05.34.126,subsecond_timing_v2,2021.1.2,Win32,60.03121623
space,0.63523,space,0.55173,,,ms_small,0,156,156,156,1,0.882,0.2,False,None,Z07,r1,2021-05-03_13h05.34.126,subsecond_timing_v2,2021.1.2,Win32,60.03121623
space,1.502685,space,0.72218,,,ms_small,0,158,158,158,1,1.024,0.1,False,None,Z07,r1,2021-05-03_13h05.34.126,subsecond_timing_v2,2021.1.2,Win32,60.03121623
space,0.674025,space,0.78358,,,ms_small,0,159,159,159,1,0.953,0.2,False,None,Z07,r1,2021-05-03_13h05.34.126,subsecond_timing_v2,2021.1.2,Win32,60.03121623
space,0.562115,space,0.68354,,,ms_small,0,160,160,160,1,0.812,0.2,False,None,Z07,r1,2021-05-03_13h05.34.126,subsecond_timing_v2,2021.1.2,Win32,60.03121623
space,0.79585,space,0.71693,,,ms_small,0,161,161,161,1,0.67,0.1,False,None,Z07,r1,2021-05-03_13h05.34.126,subsecond_timing_v2,2021.1.2,Win32,60.03121623
space,0.6088,space,0.663225,,,ms_small,0,162,162,162,1,0.953,0.1,False,None,Z07,r1,2021-05-03_13h05.34.126,subsecond_timing_v2,2021.1.2,Win32,60.03121623
space,0.65048,space,0.67992,,,ms_small,0,163,163,163,1,0.882,0.3,False,None,Z07,r1,2021-05-03_13h05.34.126,subsecond_timing_v2,2021.1.2,Win32,60.03121623
space,0.421705,space,1.89249,,,ms_small,0,164,164,164,1,0.988,0.1,False,None,Z07,r1,2021-05-03_13h05.34.126,subsecond_timing_v2,2021.1.2,Win32,60.03121623
space,0.684265,space,0.920205,,,ms_small,0,165,165,165,1,0.706,0.1,False,None,Z07,r1,2021-05-03_13h05.34.126,subsecond_timing_v2,2021.1.2,Win32,60.03121623
space,0.65885,space,1.000175,,,ms_small,0,166,166,166,1,1.024,0.3,False,None,Z07,r1,2021-05-03_13h05.34.126,subsecond_timing_v2,2021.1.2,Win32,60.03121623
space,0.7424,space,0.784215,,,ms_small,0,167,167,167,1,0.847,0.3,False,None,Z07,r1,2021-05-03_13h05.34.126,subsecond_timing_v2,2021.1.2,Win32,60.03121623
space,0.68322,space,0.774715,,,ms_small,0,168,168,168,1,0.741,0.3,False,None,Z07,r1,2021-05-03_13h05.34.126,subsecond_timing_v2,2021.1.2,Win32,60.03121623
space,0.67025,space,0.6596,,,ms_small,0,169,169,169,1,0.918,0.2,False,None,Z07,r1,2021-05-03_13h05.34.126,subsecond_timing_v2,2021.1.2,Win32,60.03121623
space,0.56196,space,0.73352,,,ms_small,0,170,170,170,1,0.776,0.1,False,None,Z07,r1,2021-05-03_13h05.34.126,subsecond_timing_v2,2021.1.2,Win32,60.03121623
space,0.61833,space,0.736865,,,ms_small,0,171,171,171,1,0.882,0.3,False,None,Z07,r1,2021-05-03_13h05.34.126,subsecond_timing_v2,2021.1.2,Win32,60.03121623
space,0.605345,space,0.740835,,,ms_small,0,172,172,172,1,0.741,0.1,False,None,Z07,r1,2021-05-03_13h05.34.126,subsecond_timing_v2,2021.1.2,Win32,60.03121623
space,0.54397,space,0.6976,,,ms_small,0,173,173,173,1,0.988,0.1,False,None,Z07,r1,2021-05-03_13h05.34.126,subsecond_timing_v2,2021.1.2,Win32,60.03121623
space,0.573065,space,0.605775,,,ms_small,0,174,174,174,1,0.706,0.2,False,None,Z07,r1,2021-05-03_13h05.34.126,subsecond_timing_v2,2021.1.2,Win32,60.03121623
space,0.49211,space,0.71978,,,ms_small,0,175,175,175,1,0.918,0.2,False,None,Z07,r1,2021-05-03_13h05.34.126,subsecond_timing_v2,2021.1.2,Win32,60.03121623
space,0.54441,space,0.9469,,,ms_small,0,176,176,176,1,0.953,0.2,False,None,Z07,r1,2021-05-03_13h05.34.126,subsecond_timing_v2,2021.1.2,Win32,60.03121623
space,0.66973,space,0.81803,,,ms_small,0,177,177,177,1,0.67,0.2,False,None,Z07,r1,2021-05-03_13h05.34.126,subsecond_timing_v2,2021.1.2,Win32,60.03121623
space,0.63936,space,0.997145,,,ms_small,0,178,178,178,1,0.847,0.3,False,None,Z07,r1,2021-05-03_13h05.34.126,subsecond_timing_v2,2021.1.2,Win32,60.03121623
space,0.734215,space,0.86444,,,ms_small,0,179,179,179,1,0.776,0.1,False,None,Z07,r1,2021-05-03_13h05.34.126,subsecond_timing_v2,2021.1.2,Win32,60.03121623
space,0.693255,space,1.08301,,,ms_small,0,180,180,180,1,0.812,0.1,False,None,Z07,r1,2021-05-03_13h05.34.126,subsecond_timing_v2,2021.1.2,Win32,60.03121623
space,0.560815,space,1.300025,,,ms_small,0,181,181,181,1,1.024,0.2,False,None,Z07,r1,2021-05-03_13h05.34.126,subsecond_timing_v2,2021.1.2,Win32,60.03121623
space,0.736745,space,1.42698,,,ms_small,0,182,182,182,1,0.706,0.3,False,None,Z07,r1,2021-05-03_13h05.34.126,subsecond_timing_v2,2021.1.2,Win32,60.03121623
space,0.794155,space,1.22632,,,ms_small,0,183,183,183,1,0.988,0.1,False,None,Z07,r1,2021-05-03_13h05.34.126,subsecond_timing_v2,2021.1.2,Win32,60.03121623
space,0.712195,space,1.243545,,,ms_small,0,184,184,184,1,1.024,0.3,False,None,Z07,r1,2021-05-03_13h05.34.126,subsecond_timing_v2,2021.1.2,Win32,60.03121623
space,0.719965,space,1.234465,,,ms_small,0,185,185,185,1,0.847,0.1,False,None,Z07,r1,2021-05-03_13h05.34.126,subsecond_timing_v2,2021.1.2,Win32,60.03121623
space,0.779255,space,1.291975,,,ms_small,0,186,186,186,1,0.741,0.1,False,None,Z07,r1,2021-05-03_13h05.34.126,subsecond_timing_v2,2021.1.2,Win32,60.03121623
space,0.793195,space,0.905025,,,ms_small,0,187,187,187,1,0.776,0.3,False,None,Z07,r1,2021-05-03_13h05.34.126,subsecond_timing_v2,2021.1.2,Win32,60.03121623
space,0.652205,space,0.92145,,,ms_small,0,188,188,188,1,0.812,0.3,False,None,Z07,r1,2021-05-03_13h05.34.126,subsecond_timing_v2,2021.1.2,Win32,60.03121623
space,0.607295,space,1.00038,,,ms_small,0,189,189,189,1,0.918,0.3,False,None,Z07,r1,2021-05-03_13h05.34.126,subsecond_timing_v2,2021.1.2,Win32,60.03121623
space,0.611245,space,0.570195,,,ms_small,0,190,190,190,1,0.67,0.1,False,None,Z07,r1,2021-05-03_13h05.34.126,subsecond_timing_v2,2021.1.2,Win32,60.03121623
space,0.62809,space,0.867115,,,ms_small,0,191,191,191,1,0.882,0.2,False,None,Z07,r1,2021-05-03_13h05.34.126,subsecond_timing_v2,2021.1.2,Win32,60.03121623
space,0.601055,space,1.12821,,,ms_small,0,192,192,192,1,0.953,0.1,False,None,Z07,r1,2021-05-03_13h05.34.126,subsecond_timing_v2,2021.1.2,Win32,60.03121623
space,0.566505,space,0.91685,,,ms_small,0,193,193,193,1,0.776,0.1,False,None,Z07,r1,2021-05-03_13h05.34.126,subsecond_timing_v2,2021.1.2,Win32,60.03121623
space,0.650225,space,1.10966,,,ms_small,0,194,194,194,1,0.988,0.3,False,None,Z07,r1,2021-05-03_13h05.34.126,subsecond_timing_v2,2021.1.2,Win32,60.03121623
space,0.69098,space,1.36723,,,ms_small,0,195,195,195,1,0.953,0.1,False,None,Z07,r1,2021-05-03_13h05.34.126,subsecond_timing_v2,2021.1.2,Win32,60.03121623
space,0.674435,space,1.254875,,,ms_small,0,196,196,196,1,0.741,0.3,False,None,Z07,r1,2021-05-03_13h05.34.126,subsecond_timing_v2,2021.1.2,Win32,60.03121623
space,0.601615,space,0.51271,,,ms_small,0,197,197,197,1,0.67,0.3,False,None,Z07,r1,2021-05-03_13h05.34.126,subsecond_timing_v2,2021.1.2,Win32,60.03121623
space,0.650425,space,0.80751,,,ms_small,0,198,198,198,1,0.847,0.3,False,None,Z07,r1,2021-05-03_13h05.34.126,subsecond_timing_v2,2021.1.2,Win32,60.03121623
space,0.600195,space,0.703165,,,ms_small,0,199,199,199,1,0.882,0.2,False,None,Z07,r1,2021-05-03_13h05.34.126,subsecond_timing_v2,2021.1.2,Win32,60.03121623
space,0.758095,space,0.63118,,,ms_small,0,200,200,200,1,0.706,0.3,False,None,Z07,r1,2021-05-03_13h05.34.126,subsecond_timing_v2,2021.1.2,Win32,60.03121623
space,0.86925,space,0.641845,,,ms_small,0,201,201,201,1,0.812,0.1,False,None,Z07,r1,2021-05-03_13h05.34.126,subsecond_timing_v2,2021.1.2,Win32,60.03121623
space,0.691315,space,0.438945,,,ms_small,0,202,202,202,1,1.024,0.2,False,None,Z07,r1,2021-05-03_13h05.34.126,subsecond_timing_v2,2021.1.2,Win32,60.03121623
space,0.649915,space,0.677075,,,ms_small,0,203,203,203,1,0.918,0.1,False,None,Z07,r1,2021-05-03_13h05.34.126,subsecond_timing_v2,2021.1.2,Win32,60.03121623
space,1.183705,space,0.695145,,,ms_small,0,204,204,204,1,0.776,0.2,False,None,Z07,r1,2021-05-03_13h05.34.126,subsecond_timing_v2,2021.1.2,Win32,60.03121623
space,0.83336,space,0.542065,,,ms_small,0,205,205,205,1,0.67,0.1,False,None,Z07,r1,2021-05-03_13h05.34.126,subsecond_timing_v2,2021.1.2,Win32,60.03121623
space,0.787885,space,0.603585,,,ms_small,0,206,206,206,1,0.706,0.3,False,None,Z07,r1,2021-05-03_13h05.34.126,subsecond_timing_v2,2021.1.2,Win32,60.03121623
space,0.65,space,1.00456,,,ms_small,0,207,207,207,1,0.988,0.2,False,None,Z07,r1,2021-05-03_13h05.34.126,subsecond_timing_v2,2021.1.2,Win32,60.03121623
space,3.082545,space,0.88718,,,ms_small,0,208,208,208,1,0.847,0.3,False,None,Z07,r1,2021-05-03_13h05.34.126,subsecond_timing_v2,2021.1.2,Win32,60.03121623
space,0.483285,space,1.124925,,,ms_small,0,209,209,209,1,0.953,0.2,False,None,Z07,r1,2021-05-03_13h05.34.126,subsecond_timing_v2,2021.1.2,Win32,60.03121623
space,0.911635,space,0.875035,,,ms_small,0,210,210,210,1,0.812,0.1,False,None,Z07,r1,2021-05-03_13h05.34.126,subsecond_timing_v2,2021.1.2,Win32,60.03121623
space,0.802555,space,0.762105,,,ms_small,0,211,211,211,1,0.918,0.1,False,None,Z07,r1,2021-05-03_13h05.34.126,subsecond_timing_v2,2021.1.2,Win32,60.03121623
space,0.63754,space,0.707595,,,ms_small,0,212,212,212,1,0.741,0.3,False,None,Z07,r1,2021-05-03_13h05.34.126,subsecond_timing_v2,2021.1.2,Win32,60.03121623
space,0.643305,space,0.75318,,,ms_small,0,213,213,213,1,0.882,0.3,False,None,Z07,r1,2021-05-03_13h05.34.126,subsecond_timing_v2,2021.1.2,Win32,60.03121623
space,0.96946,space,0.810665,,,ms_small,0,214,214,214,1,1.024,0.1,False,None,Z07,r1,2021-05-03_13h05.34.126,subsecond_timing_v2,2021.1.2,Win32,60.03121623
space,0.612605,space,0.95048,,,ms_small,0,215,215,215,1,1.024,0.2,False,None,Z07,r1,2021-05-03_13h05.34.126,subsecond_timing_v2,2021.1.2,Win32,60.03121623
space,0.750175,space,0.901735,,,ms_small,0,216,216,216,1,0.706,0.2,False,None,Z07,r1,2021-05-03_13h05.34.126,subsecond_timing_v2,2021.1.2,Win32,60.03121623
space,0.526435,space,1.07293,,,ms_small,0,217,217,217,1,0.882,0.1,False,None,Z07,r1,2021-05-03_13h05.34.126,subsecond_timing_v2,2021.1.2,Win32,60.03121623
space,0.866855,space,1.017085,,,ms_small,0,218,218,218,1,0.776,0.2,False,None,Z07,r1,2021-05-03_13h05.34.126,subsecond_timing_v2,2021.1.2,Win32,60.03121623
space,0.76137,space,0.954625,,,ms_small,0,219,219,219,1,0.847,0.2,False,None,Z07,r1,2021-05-03_13h05.34.126,subsecond_timing_v2,2021.1.2,Win32,60.03121623
space,0.7333,space,0.950235,,,ms_small,0,220,220,220,1,0.812,0.1,False,None,Z07,r1,2021-05-03_13h05.34.126,subsecond_timing_v2,2021.1.2,Win32,60.03121623
space,0.479765,space,1.15026,,,ms_small,0,221,221,221,1,0.988,0.1,False,None,Z07,r1,2021-05-03_13h05.34.126,subsecond_timing_v2,2021.1.2,Win32,60.03121623
space,0.720465,space,1.16322,,,ms_small,0,222,222,222,1,0.918,0.1,False,None,Z07,r1,2021-05-03_13h05.34.126,subsecond_timing_v2,2021.1.2,Win32,60.03121623
space,0.821715,space,1.04442,,,ms_small,0,223,223,223,1,0.67,0.2,False,None,Z07,r1,2021-05-03_13h05.34.126,subsecond_timing_v2,2021.1.2,Win32,60.03121623
space,1.172825,space,1.7578,,,ms_small,0,224,224,224,1,0.741,0.3,False,None,Z07,r1,2021-05-03_13h05.34.126,subsecond_timing_v2,2021.1.2,Win32,60.03121623
space,0.569115,space,0.83385,,,ms_small,0,225,225,225,1,0.953,0.1,False,None,Z07,r1,2021-05-03_13h05.34.126,subsecond_timing_v2,2021.1.2,Win32,60.03121623
