key_resp_start.keys,key_resp_start.rt,key_resp_stop.keys,key_resp_stop.rt,feedback_range,hit,stimulus_range,trials.thisRepN,trials.thisTrialN,trials.thisN,trials.thisIndex,trials.ran,stimulus_duration,onset,feedback,feedback_range_fromfile,participant,session,date,expName,psychopyVersion,OS,frameRate
space,1.916915,space,0.41991,0.3,FALSE,Training,0,0,0,0,1,1,0.2,True,0.3,Z09,r2,2021-05-10_22h27.03.112,subsecond_timing_v2,2021.1.2,Win32,59.52380952
space,1.85455,space,0.41762,0.3,FALSE,Training,0,1,1,1,1,0.75,0.2,True,0.3,Z09,r2,2021-05-10_22h27.03.112,subsecond_timing_v2,2021.1.2,Win32,59.52380952
space,0.884285,space,0.2888,0.3,FALSE,Training,0,2,2,2,1,0.5,0.2,True,0.3,Z09,r2,2021-05-10_22h27.03.112,subsecond_timing_v2,2021.1.2,Win32,59.52380952
space,0.617225,space,0.23437,0.3,FALSE,Training,0,3,3,3,1,0.5,0.3,True,0.3,Z09,r2,2021-05-10_22h27.03.112,subsecond_timing_v2,2021.1.2,Win32,59.52380952
space,0.86817,space,0.58458,0.3,TRUE,Training,0,4,4,4,1,0.75,0.3,True,0.3,Z09,r2,2021-05-10_22h27.03.112,subsecond_timing_v2,2021.1.2,Win32,59.52380952
space,0.66788,space,1.11701,0.3,TRUE,Training,0,5,5,5,1,1,0.3,True,0.3,Z09,r2,2021-05-10_22h27.03.112,subsecond_timing_v2,2021.1.2,Win32,59.52380952
space,0.951105,space,1.05163,,,ms_large,0,6,6,6,1,1.165,0.2,False,None,Z09,r2,2021-05-10_22h27.03.112,subsecond_timing_v2,2021.1.2,Win32,59.52380952
space,1.08255,space,0.93989,,,ms_large,0,7,7,7,1,1.094,0.3,False,None,Z09,r2,2021-05-10_22h27.03.112,subsecond_timing_v2,2021.1.2,Win32,59.52380952
space,1.08363,space,1.000175,,,ms_large,0,8,8,8,1,1.2,0.3,False,None,Z09,r2,2021-05-10_22h27.03.112,subsecond_timing_v2,2021.1.2,Win32,59.52380952
space,0.85614,space,0.70218,,,ms_large,0,9,9,9,1,1.024,0.1,False,None,Z09,r2,2021-05-10_22h27.03.112,subsecond_timing_v2,2021.1.2,Win32,59.52380952
space,0.64982,space,0.873595,,,ms_large,0,10,10,10,1,0.953,0.3,False,None,Z09,r2,2021-05-10_22h27.03.112,subsecond_timing_v2,2021.1.2,Win32,59.52380952
space,1.2007,space,0.858305,,,ms_large,0,11,11,11,1,0.847,0.1,False,None,Z09,r2,2021-05-10_22h27.03.112,subsecond_timing_v2,2021.1.2,Win32,59.52380952
space,0.986335,space,0.872835,,,ms_large,0,12,12,12,1,0.882,0.3,False,None,Z09,r2,2021-05-10_22h27.03.112,subsecond_timing_v2,2021.1.2,Win32,59.52380952
space,1.31658,space,0.853145,,,ms_large,0,13,13,13,1,1.129,0.1,False,None,Z09,r2,2021-05-10_22h27.03.112,subsecond_timing_v2,2021.1.2,Win32,59.52380952
space,1.61754,space,0.85031,,,ms_large,0,14,14,14,1,1.059,0.3,False,None,Z09,r2,2021-05-10_22h27.03.112,subsecond_timing_v2,2021.1.2,Win32,59.52380952
space,2.84224,space,0.739685,,,ms_large,0,15,15,15,1,0.918,0.3,False,None,Z09,r2,2021-05-10_22h27.03.112,subsecond_timing_v2,2021.1.2,Win32,59.52380952
space,1.890645,space,0.601055,,,ms_large,0,16,16,16,1,0.988,0.1,False,None,Z09,r2,2021-05-10_22h27.03.112,subsecond_timing_v2,2021.1.2,Win32,59.52380952
space,2.667235,space,1.06906,,,ms_large,0,17,17,17,1,0.953,0.2,False,None,Z09,r2,2021-05-10_22h27.03.112,subsecond_timing_v2,2021.1.2,Win32,59.52380952
space,0.940615,space,0.817875,,,ms_large,0,18,18,18,1,1.129,0.3,False,None,Z09,r2,2021-05-10_22h27.03.112,subsecond_timing_v2,2021.1.2,Win32,59.52380952
space,3.50108,space,0.871635,,,ms_large,0,19,19,19,1,0.988,0.2,False,None,Z09,r2,2021-05-10_22h27.03.112,subsecond_timing_v2,2021.1.2,Win32,59.52380952
space,2.07182,space,0.969555,,,ms_large,0,20,20,20,1,1.024,0.1,False,None,Z09,r2,2021-05-10_22h27.03.112,subsecond_timing_v2,2021.1.2,Win32,59.52380952
space,1.684435,space,0.97192,,,ms_large,0,21,21,21,1,1.165,0.1,False,None,Z09,r2,2021-05-10_22h27.03.112,subsecond_timing_v2,2021.1.2,Win32,59.52380952
space,2.28486,space,1.002665,,,ms_large,0,22,22,22,1,1.2,0.1,False,None,Z09,r2,2021-05-10_22h27.03.112,subsecond_timing_v2,2021.1.2,Win32,59.52380952
space,2.06721,space,0.617105,,,ms_large,0,23,23,23,1,0.882,0.2,False,None,Z09,r2,2021-05-10_22h27.03.112,subsecond_timing_v2,2021.1.2,Win32,59.52380952
space,1.916855,space,0.517225,,,ms_large,0,24,24,24,1,0.847,0.3,False,None,Z09,r2,2021-05-10_22h27.03.112,subsecond_timing_v2,2021.1.2,Win32,59.52380952
space,1.167345,space,0.53445,,,ms_large,0,25,25,25,1,1.094,0.1,False,None,Z09,r2,2021-05-10_22h27.03.112,subsecond_timing_v2,2021.1.2,Win32,59.52380952
space,1.218535,space,0.633585,,,ms_large,0,26,26,26,1,1.059,0.1,False,None,Z09,r2,2021-05-10_22h27.03.112,subsecond_timing_v2,2021.1.2,Win32,59.52380952
space,1.55093,space,0.736805,,,ms_large,0,27,27,27,1,0.918,0.3,False,None,Z09,r2,2021-05-10_22h27.03.112,subsecond_timing_v2,2021.1.2,Win32,59.52380952
space,2.15216,space,0.969545,,,ms_large,0,28,28,28,1,0.988,0.2,False,None,Z09,r2,2021-05-10_22h27.03.112,subsecond_timing_v2,2021.1.2,Win32,59.52380952
space,1.718475,space,0.987725,,,ms_large,0,29,29,29,1,1.165,0.2,False,None,Z09,r2,2021-05-10_22h27.03.112,subsecond_timing_v2,2021.1.2,Win32,59.52380952
space,1.300765,space,0.652115,,,ms_large,0,30,30,30,1,1.129,0.1,False,None,Z09,r2,2021-05-10_22h27.03.112,subsecond_timing_v2,2021.1.2,Win32,59.52380952
space,1.47502,space,0.718645,,,ms_large,0,31,31,31,1,1.059,0.1,False,None,Z09,r2,2021-05-10_22h27.03.112,subsecond_timing_v2,2021.1.2,Win32,59.52380952
space,1.23675,space,0.887695,,,ms_large,0,32,32,32,1,0.918,0.3,False,None,Z09,r2,2021-05-10_22h27.03.112,subsecond_timing_v2,2021.1.2,Win32,59.52380952
space,1.986505,space,1.070865,,,ms_large,0,33,33,33,1,1.2,0.3,False,None,Z09,r2,2021-05-10_22h27.03.112,subsecond_timing_v2,2021.1.2,Win32,59.52380952
space,1.45836,space,0.60557,,,ms_large,0,34,34,34,1,0.847,0.1,False,None,Z09,r2,2021-05-10_22h27.03.112,subsecond_timing_v2,2021.1.2,Win32,59.52380952
space,2.100275,space,0.986565,,,ms_large,0,35,35,35,1,1.024,0.1,False,None,Z09,r2,2021-05-10_22h27.03.112,subsecond_timing_v2,2021.1.2,Win32,59.52380952
space,1.2018,space,0.685195,,,ms_large,0,36,36,36,1,0.882,0.1,False,None,Z09,r2,2021-05-10_22h27.03.112,subsecond_timing_v2,2021.1.2,Win32,59.52380952
space,0.86699,space,1.034545,,,ms_large,0,37,37,37,1,1.094,0.2,False,None,Z09,r2,2021-05-10_22h27.03.112,subsecond_timing_v2,2021.1.2,Win32,59.52380952
space,2.758915,space,1.059335,,,ms_large,0,38,38,38,1,0.953,0.1,False,None,Z09,r2,2021-05-10_22h27.03.112,subsecond_timing_v2,2021.1.2,Win32,59.52380952
space,1.63361,space,0.900285,,,ms_large,0,39,39,39,1,1.165,0.2,False,None,Z09,r2,2021-05-10_22h27.03.112,subsecond_timing_v2,2021.1.2,Win32,59.52380952
space,1.44147,space,0.7178,,,ms_large,0,40,40,40,1,0.953,0.1,False,None,Z09,r2,2021-05-10_22h27.03.112,subsecond_timing_v2,2021.1.2,Win32,59.52380952
space,1.352555,space,0.785515,,,ms_large,0,41,41,41,1,0.988,0.1,False,None,Z09,r2,2021-05-10_22h27.03.112,subsecond_timing_v2,2021.1.2,Win32,59.52380952
space,1.64279,space,0.742405,,,ms_large,0,42,42,42,1,1.094,0.1,False,None,Z09,r2,2021-05-10_22h27.03.112,subsecond_timing_v2,2021.1.2,Win32,59.52380952
space,1.00592,space,0.9698,,,ms_large,0,43,43,43,1,1.129,0.3,False,None,Z09,r2,2021-05-10_22h27.03.112,subsecond_timing_v2,2021.1.2,Win32,59.52380952
space,1.266735,space,0.633535,,,ms_large,0,44,44,44,1,0.882,0.2,False,None,Z09,r2,2021-05-10_22h27.03.112,subsecond_timing_v2,2021.1.2,Win32,59.52380952
space,0.93357,space,1.15849,,,ms_large,0,45,45,45,1,1.2,0.1,False,None,Z09,r2,2021-05-10_22h27.03.112,subsecond_timing_v2,2021.1.2,Win32,59.52380952
space,1.491775,space,1.10045,,,ms_large,0,46,46,46,1,1.024,0.1,False,None,Z09,r2,2021-05-10_22h27.03.112,subsecond_timing_v2,2021.1.2,Win32,59.52380952
space,1.1591,space,0.728705,,,ms_large,0,47,47,47,1,0.918,0.2,False,None,Z09,r2,2021-05-10_22h27.03.112,subsecond_timing_v2,2021.1.2,Win32,59.52380952
space,1.632045,space,0.508015,,,ms_large,0,48,48,48,1,0.847,0.1,False,None,Z09,r2,2021-05-10_22h27.03.112,subsecond_timing_v2,2021.1.2,Win32,59.52380952
space,1.13526,space,0.66752,,,ms_large,0,49,49,49,1,1.059,0.3,False,None,Z09,r2,2021-05-10_22h27.03.112,subsecond_timing_v2,2021.1.2,Win32,59.52380952
space,1.2899,space,0.70946,,,ms_large,0,50,50,50,1,0.953,0.2,False,None,Z09,r2,2021-05-10_22h27.03.112,subsecond_timing_v2,2021.1.2,Win32,59.52380952
space,0.90165,space,0.93498,,,ms_large,0,51,51,51,1,1.024,0.3,False,None,Z09,r2,2021-05-10_22h27.03.112,subsecond_timing_v2,2021.1.2,Win32,59.52380952
space,1.90377,space,0.817205,,,ms_large,0,52,52,52,1,1.165,0.3,False,None,Z09,r2,2021-05-10_22h27.03.112,subsecond_timing_v2,2021.1.2,Win32,59.52380952
space,1.520075,space,0.636995,,,ms_large,0,53,53,53,1,0.847,0.3,False,None,Z09,r2,2021-05-10_22h27.03.112,subsecond_timing_v2,2021.1.2,Win32,59.52380952
space,1.450665,space,1.136315,,,ms_large,0,54,54,54,1,1.2,0.1,False,None,Z09,r2,2021-05-10_22h27.03.112,subsecond_timing_v2,2021.1.2,Win32,59.52380952
space,1.05573,space,1.04294,,,ms_large,0,55,55,55,1,0.988,0.3,False,None,Z09,r2,2021-05-10_22h27.03.112,subsecond_timing_v2,2021.1.2,Win32,59.52380952
space,1.005695,space,0.70084,,,ms_large,0,56,56,56,1,0.882,0.1,False,None,Z09,r2,2021-05-10_22h27.03.112,subsecond_timing_v2,2021.1.2,Win32,59.52380952
space,0.950295,space,0.707145,,,ms_large,0,57,57,57,1,1.059,0.1,False,None,Z09,r2,2021-05-10_22h27.03.112,subsecond_timing_v2,2021.1.2,Win32,59.52380952
space,1.236455,space,1.017035,,,ms_large,0,58,58,58,1,1.094,0.1,False,None,Z09,r2,2021-05-10_22h27.03.112,subsecond_timing_v2,2021.1.2,Win32,59.52380952
space,1.599985,space,1.040195,,,ms_large,0,59,59,59,1,1.129,0.3,False,None,Z09,r2,2021-05-10_22h27.03.112,subsecond_timing_v2,2021.1.2,Win32,59.52380952
space,1.18725,space,0.838345,,,ms_large,0,60,60,60,1,0.918,0.3,False,None,Z09,r2,2021-05-10_22h27.03.112,subsecond_timing_v2,2021.1.2,Win32,59.52380952
space,1.16799,space,1.06752,,,ms_large,0,61,61,61,1,1.129,0.1,False,None,Z09,r2,2021-05-10_22h27.03.112,subsecond_timing_v2,2021.1.2,Win32,59.52380952
space,1.133835,space,1.25771,,,ms_large,0,62,62,62,1,1.165,0.3,False,None,Z09,r2,2021-05-10_22h27.03.112,subsecond_timing_v2,2021.1.2,Win32,59.52380952
space,1.883015,space,1.254395,,,ms_large,0,63,63,63,1,0.953,0.2,False,None,Z09,r2,2021-05-10_22h27.03.112,subsecond_timing_v2,2021.1.2,Win32,59.52380952
space,2.284205,space,1.10002,,,ms_large,0,64,64,64,1,1.094,0.2,False,None,Z09,r2,2021-05-10_22h27.03.112,subsecond_timing_v2,2021.1.2,Win32,59.52380952
space,2.622635,space,0.73447,,,ms_large,0,65,65,65,1,0.882,0.1,False,None,Z09,r2,2021-05-10_22h27.03.112,subsecond_timing_v2,2021.1.2,Win32,59.52380952
space,1.33347,space,0.824825,,,ms_large,0,66,66,66,1,0.918,0.2,False,None,Z09,r2,2021-05-10_22h27.03.112,subsecond_timing_v2,2021.1.2,Win32,59.52380952
space,0.93527,space,0.601435,,,ms_large,0,67,67,67,1,0.988,0.1,False,None,Z09,r2,2021-05-10_22h27.03.112,subsecond_timing_v2,2021.1.2,Win32,59.52380952
space,0.81785,space,0.883795,,,ms_large,0,68,68,68,1,1.024,0.1,False,None,Z09,r2,2021-05-10_22h27.03.112,subsecond_timing_v2,2021.1.2,Win32,59.52380952
space,0.94268,space,0.768025,,,ms_large,0,69,69,69,1,1.2,0.1,False,None,Z09,r2,2021-05-10_22h27.03.112,subsecond_timing_v2,2021.1.2,Win32,59.52380952
space,0.774185,space,0.934265,,,ms_large,0,70,70,70,1,1.059,0.1,False,None,Z09,r2,2021-05-10_22h27.03.112,subsecond_timing_v2,2021.1.2,Win32,59.52380952
space,1.188965,space,0.999925,,,ms_large,0,71,71,71,1,0.847,0.1,False,None,Z09,r2,2021-05-10_22h27.03.112,subsecond_timing_v2,2021.1.2,Win32,59.52380952
space,0.82446,space,1.04052,,,ms_large,0,72,72,72,1,1.094,0.2,False,None,Z09,r2,2021-05-10_22h27.03.112,subsecond_timing_v2,2021.1.2,Win32,59.52380952
space,0.86828,space,0.88588,,,ms_large,0,73,73,73,1,0.918,0.3,False,None,Z09,r2,2021-05-10_22h27.03.112,subsecond_timing_v2,2021.1.2,Win32,59.52380952
space,0.85076,space,0.903695,,,ms_large,0,74,74,74,1,0.953,0.2,False,None,Z09,r2,2021-05-10_22h27.03.112,subsecond_timing_v2,2021.1.2,Win32,59.52380952
space,1.008375,space,0.75384,,,ms_large,0,75,75,75,1,0.882,0.2,False,None,Z09,r2,2021-05-10_22h27.03.112,subsecond_timing_v2,2021.1.2,Win32,59.52380952
space,1.0503,space,0.98368,,,ms_large,0,76,76,76,1,0.988,0.3,False,None,Z09,r2,2021-05-10_22h27.03.112,subsecond_timing_v2,2021.1.2,Win32,59.52380952
space,1.318715,space,1.120225,,,ms_large,0,77,77,77,1,1.2,0.1,False,None,Z09,r2,2021-05-10_22h27.03.112,subsecond_timing_v2,2021.1.2,Win32,59.52380952
space,1.1684,space,0.833865,,,ms_large,0,78,78,78,1,1.024,0.2,False,None,Z09,r2,2021-05-10_22h27.03.112,subsecond_timing_v2,2021.1.2,Win32,59.52380952
space,3.451195,space,0.90562,,,ms_large,0,79,79,79,1,1.129,0.1,False,None,Z09,r2,2021-05-10_22h27.03.112,subsecond_timing_v2,2021.1.2,Win32,59.52380952
space,1.268295,space,1.25074,,,ms_large,0,80,80,80,1,1.165,0.3,False,None,Z09,r2,2021-05-10_22h27.03.112,subsecond_timing_v2,2021.1.2,Win32,59.52380952
space,1.98385,space,1.350295,,,ms_large,0,81,81,81,1,1.059,0.2,False,None,Z09,r2,2021-05-10_22h27.03.112,subsecond_timing_v2,2021.1.2,Win32,59.52380952
space,1.23669,space,1.117525,,,ms_large,0,82,82,82,1,0.847,0.1,False,None,Z09,r2,2021-05-10_22h27.03.112,subsecond_timing_v2,2021.1.2,Win32,59.52380952
space,1.250335,space,1.138145,,,ms_large,0,83,83,83,1,1.024,0.1,False,None,Z09,r2,2021-05-10_22h27.03.112,subsecond_timing_v2,2021.1.2,Win32,59.52380952
space,1.21895,space,1.09995,,,ms_large,0,84,84,84,1,1.059,0.3,False,None,Z09,r2,2021-05-10_22h27.03.112,subsecond_timing_v2,2021.1.2,Win32,59.52380952
space,1.272905,space,0.87374,,,ms_large,0,85,85,85,1,0.918,0.1,False,None,Z09,r2,2021-05-10_22h27.03.112,subsecond_timing_v2,2021.1.2,Win32,59.52380952
space,1.63401,space,1.26683,,,ms_large,0,86,86,86,1,1.165,0.1,False,None,Z09,r2,2021-05-10_22h27.03.112,subsecond_timing_v2,2021.1.2,Win32,59.52380952
space,1.717885,space,0.867105,,,ms_large,0,87,87,87,1,0.953,0.1,False,None,Z09,r2,2021-05-10_22h27.03.112,subsecond_timing_v2,2021.1.2,Win32,59.52380952
space,1.20426,space,0.90428,,,ms_large,0,88,88,88,1,0.882,0.1,False,None,Z09,r2,2021-05-10_22h27.03.112,subsecond_timing_v2,2021.1.2,Win32,59.52380952
space,1.950085,space,0.72473,,,ms_large,0,89,89,89,1,0.847,0.1,False,None,Z09,r2,2021-05-10_22h27.03.112,subsecond_timing_v2,2021.1.2,Win32,59.52380952
space,1.2753,space,1.33351,,,ms_large,0,90,90,90,1,1.094,0.1,False,None,Z09,r2,2021-05-10_22h27.03.112,subsecond_timing_v2,2021.1.2,Win32,59.52380952
space,1.049515,space,1.05726,,,ms_large,0,91,91,91,1,1.129,0.2,False,None,Z09,r2,2021-05-10_22h27.03.112,subsecond_timing_v2,2021.1.2,Win32,59.52380952
space,0.950475,space,0.885945,,,ms_large,0,92,92,92,1,1.2,0.1,False,None,Z09,r2,2021-05-10_22h27.03.112,subsecond_timing_v2,2021.1.2,Win32,59.52380952
space,1.28519,space,1.099825,,,ms_large,0,93,93,93,1,0.988,0.1,False,None,Z09,r2,2021-05-10_22h27.03.112,subsecond_timing_v2,2021.1.2,Win32,59.52380952
space,1.01768,space,0.916095,,,ms_large,0,94,94,94,1,1.129,0.3,False,None,Z09,r2,2021-05-10_22h27.03.112,subsecond_timing_v2,2021.1.2,Win32,59.52380952
space,1.20052,space,0.98501,,,ms_large,0,95,95,95,1,1.165,0.2,False,None,Z09,r2,2021-05-10_22h27.03.112,subsecond_timing_v2,2021.1.2,Win32,59.52380952
space,1.000255,space,0.873305,,,ms_large,0,96,96,96,1,1.024,0.3,False,None,Z09,r2,2021-05-10_22h27.03.112,subsecond_timing_v2,2021.1.2,Win32,59.52380952
space,1.204785,space,0.77571,,,ms_large,0,97,97,97,1,1.094,0.1,False,None,Z09,r2,2021-05-10_22h27.03.112,subsecond_timing_v2,2021.1.2,Win32,59.52380952
space,1.285775,space,0.96725,,,ms_large,0,98,98,98,1,1.059,0.2,False,None,Z09,r2,2021-05-10_22h27.03.112,subsecond_timing_v2,2021.1.2,Win32,59.52380952
space,1.11619,space,1.017115,,,ms_large,0,99,99,99,1,1.2,0.1,False,None,Z09,r2,2021-05-10_22h27.03.112,subsecond_timing_v2,2021.1.2,Win32,59.52380952
space,1.40054,space,1.023205,,,ms_large,0,100,100,100,1,0.882,0.3,False,None,Z09,r2,2021-05-10_22h27.03.112,subsecond_timing_v2,2021.1.2,Win32,59.52380952
space,1.26648,space,0.654525,,,ms_large,0,101,101,101,1,0.918,0.3,False,None,Z09,r2,2021-05-10_22h27.03.112,subsecond_timing_v2,2021.1.2,Win32,59.52380952
space,0.990475,space,0.708505,,,ms_large,0,102,102,102,1,0.988,0.3,False,None,Z09,r2,2021-05-10_22h27.03.112,subsecond_timing_v2,2021.1.2,Win32,59.52380952
space,1.21717,space,0.650715,,,ms_large,0,103,103,103,1,0.847,0.1,False,None,Z09,r2,2021-05-10_22h27.03.112,subsecond_timing_v2,2021.1.2,Win32,59.52380952
space,1.18444,space,0.986375,,,ms_large,0,104,104,104,1,0.953,0.3,False,None,Z09,r2,2021-05-10_22h27.03.112,subsecond_timing_v2,2021.1.2,Win32,59.52380952
space,1.600745,space,0.817405,,,ms_large,0,105,105,105,1,0.847,0.3,False,None,Z09,r2,2021-05-10_22h27.03.112,subsecond_timing_v2,2021.1.2,Win32,59.52380952
space,1.001165,space,0.94153,,,ms_large,0,106,106,106,1,1.094,0.3,False,None,Z09,r2,2021-05-10_22h27.03.112,subsecond_timing_v2,2021.1.2,Win32,59.52380952
space,1.18342,space,1.26704,,,ms_large,0,107,107,107,1,1.129,0.3,False,None,Z09,r2,2021-05-10_22h27.03.112,subsecond_timing_v2,2021.1.2,Win32,59.52380952
space,1.484465,space,0.701375,,,ms_large,0,108,108,108,1,0.882,0.3,False,None,Z09,r2,2021-05-10_22h27.03.112,subsecond_timing_v2,2021.1.2,Win32,59.52380952
space,0.874475,space,0.80005,,,ms_large,0,109,109,109,1,0.953,0.2,False,None,Z09,r2,2021-05-10_22h27.03.112,subsecond_timing_v2,2021.1.2,Win32,59.52380952
space,0.835415,space,0.96799,,,ms_large,0,110,110,110,1,0.988,0.1,False,None,Z09,r2,2021-05-10_22h27.03.112,subsecond_timing_v2,2021.1.2,Win32,59.52380952
space,1.36771,space,0.950475,,,ms_large,0,111,111,111,1,1.165,0.3,False,None,Z09,r2,2021-05-10_22h27.03.112,subsecond_timing_v2,2021.1.2,Win32,59.52380952
space,0.950765,space,0.684465,,,ms_large,0,112,112,112,1,0.918,0.2,False,None,Z09,r2,2021-05-10_22h27.03.112,subsecond_timing_v2,2021.1.2,Win32,59.52380952
space,0.954345,space,0.78397,,,ms_large,0,113,113,113,1,1.059,0.3,False,None,Z09,r2,2021-05-10_22h27.03.112,subsecond_timing_v2,2021.1.2,Win32,59.52380952
space,1.29,space,1.11872,,,ms_large,0,114,114,114,1,1.2,0.2,False,None,Z09,r2,2021-05-10_22h27.03.112,subsecond_timing_v2,2021.1.2,Win32,59.52380952
space,1.001885,space,0.733205,,,ms_large,0,115,115,115,1,1.024,0.3,False,None,Z09,r2,2021-05-10_22h27.03.112,subsecond_timing_v2,2021.1.2,Win32,59.52380952
space,1.104885,space,1.017685,,,ms_large,0,116,116,116,1,1.129,0.3,False,None,Z09,r2,2021-05-10_22h27.03.112,subsecond_timing_v2,2021.1.2,Win32,59.52380952
space,1.02181,space,1.07279,,,ms_large,0,117,117,117,1,1.2,0.3,False,None,Z09,r2,2021-05-10_22h27.03.112,subsecond_timing_v2,2021.1.2,Win32,59.52380952
space,0.833555,space,1.001595,,,ms_large,0,118,118,118,1,1.024,0.3,False,None,Z09,r2,2021-05-10_22h27.03.112,subsecond_timing_v2,2021.1.2,Win32,59.52380952
space,1.017575,space,0.8542,,,ms_large,0,119,119,119,1,1.094,0.1,False,None,Z09,r2,2021-05-10_22h27.03.112,subsecond_timing_v2,2021.1.2,Win32,59.52380952
space,1.000485,space,1.13452,,,ms_large,0,120,120,120,1,1.059,0.1,False,None,Z09,r2,2021-05-10_22h27.03.112,subsecond_timing_v2,2021.1.2,Win32,59.52380952
space,1.033265,space,0.791315,,,ms_large,0,121,121,121,1,0.988,0.2,False,None,Z09,r2,2021-05-10_22h27.03.112,subsecond_timing_v2,2021.1.2,Win32,59.52380952
space,0.983725,space,0.716665,,,ms_large,0,122,122,122,1,0.847,0.3,False,None,Z09,r2,2021-05-10_22h27.03.112,subsecond_timing_v2,2021.1.2,Win32,59.52380952
space,0.967995,space,0.656325,,,ms_large,0,123,123,123,1,0.953,0.2,False,None,Z09,r2,2021-05-10_22h27.03.112,subsecond_timing_v2,2021.1.2,Win32,59.52380952
space,0.867085,space,0.60586,,,ms_large,0,124,124,124,1,0.918,0.2,False,None,Z09,r2,2021-05-10_22h27.03.112,subsecond_timing_v2,2021.1.2,Win32,59.52380952
space,0.98987,space,0.938175,,,ms_large,0,125,125,125,1,1.165,0.2,False,None,Z09,r2,2021-05-10_22h27.03.112,subsecond_timing_v2,2021.1.2,Win32,59.52380952
space,0.80386,space,0.61836,,,ms_large,0,126,126,126,1,0.882,0.3,False,None,Z09,r2,2021-05-10_22h27.03.112,subsecond_timing_v2,2021.1.2,Win32,59.52380952
space,0.874675,space,0.6181,,,ms_large,0,127,127,127,1,0.882,0.2,False,None,Z09,r2,2021-05-10_22h27.03.112,subsecond_timing_v2,2021.1.2,Win32,59.52380952
space,0.933655,space,0.8,,,ms_large,0,128,128,128,1,1.094,0.2,False,None,Z09,r2,2021-05-10_22h27.03.112,subsecond_timing_v2,2021.1.2,Win32,59.52380952
space,0.936195,space,0.867315,,,ms_large,0,129,129,129,1,1.024,0.3,False,None,Z09,r2,2021-05-10_22h27.03.112,subsecond_timing_v2,2021.1.2,Win32,59.52380952
space,0.972425,space,0.790605,,,ms_large,0,130,130,130,1,0.847,0.1,False,None,Z09,r2,2021-05-10_22h27.03.112,subsecond_timing_v2,2021.1.2,Win32,59.52380952
space,0.950865,space,1.302655,,,ms_large,0,131,131,131,1,1.2,0.1,False,None,Z09,r2,2021-05-10_22h27.03.112,subsecond_timing_v2,2021.1.2,Win32,59.52380952
space,0.916405,space,1.275555,,,ms_large,0,132,132,132,1,1.059,0.3,False,None,Z09,r2,2021-05-10_22h27.03.112,subsecond_timing_v2,2021.1.2,Win32,59.52380952
space,1.059705,space,0.79991,,,ms_large,0,133,133,133,1,0.918,0.1,False,None,Z09,r2,2021-05-10_22h27.03.112,subsecond_timing_v2,2021.1.2,Win32,59.52380952
space,1.08461,space,1.184385,,,ms_large,0,134,134,134,1,1.129,0.3,False,None,Z09,r2,2021-05-10_22h27.03.112,subsecond_timing_v2,2021.1.2,Win32,59.52380952
space,1.267905,space,0.900005,,,ms_large,0,135,135,135,1,1.165,0.2,False,None,Z09,r2,2021-05-10_22h27.03.112,subsecond_timing_v2,2021.1.2,Win32,59.52380952
space,0.95364,space,0.95541,,,ms_large,0,136,136,136,1,0.953,0.1,False,None,Z09,r2,2021-05-10_22h27.03.112,subsecond_timing_v2,2021.1.2,Win32,59.52380952
space,1.099825,space,0.948315,,,ms_large,0,137,137,137,1,0.988,0.3,False,None,Z09,r2,2021-05-10_22h27.03.112,subsecond_timing_v2,2021.1.2,Win32,59.52380952
space,1.033555,space,0.717445,,,ms_large,0,138,138,138,1,0.847,0.1,False,None,Z09,r2,2021-05-10_22h27.03.112,subsecond_timing_v2,2021.1.2,Win32,59.52380952
space,0.850865,space,0.60349,,,ms_large,0,139,139,139,1,0.882,0.1,False,None,Z09,r2,2021-05-10_22h27.03.112,subsecond_timing_v2,2021.1.2,Win32,59.52380952
space,1.100445,space,1.004805,,,ms_large,0,140,140,140,1,0.988,0.3,False,None,Z09,r2,2021-05-10_22h27.03.112,subsecond_timing_v2,2021.1.2,Win32,59.52380952
space,0.85018,space,0.91715,,,ms_large,0,141,141,141,1,0.953,0.1,False,None,Z09,r2,2021-05-10_22h27.03.112,subsecond_timing_v2,2021.1.2,Win32,59.52380952
space,0.64996,space,0.750445,,,ms_large,0,142,142,142,1,1.165,0.2,False,None,Z09,r2,2021-05-10_22h27.03.112,subsecond_timing_v2,2021.1.2,Win32,59.52380952
space,1.00514,space,0.74963,,,ms_large,0,143,143,143,1,1.059,0.3,False,None,Z09,r2,2021-05-10_22h27.03.112,subsecond_timing_v2,2021.1.2,Win32,59.52380952
space,1.155045,space,0.950855,,,ms_large,0,144,144,144,1,1.2,0.1,False,None,Z09,r2,2021-05-10_22h27.03.112,subsecond_timing_v2,2021.1.2,Win32,59.52380952
space,1.07336,space,0.9686,,,ms_large,0,145,145,145,1,1.094,0.2,False,None,Z09,r2,2021-05-10_22h27.03.112,subsecond_timing_v2,2021.1.2,Win32,59.52380952
space,0.93463,space,0.767435,,,ms_large,0,146,146,146,1,1.024,0.3,False,None,Z09,r2,2021-05-10_22h27.03.112,subsecond_timing_v2,2021.1.2,Win32,59.52380952
space,1.118575,space,1.03768,,,ms_large,0,147,147,147,1,0.918,0.2,False,None,Z09,r2,2021-05-10_22h27.03.112,subsecond_timing_v2,2021.1.2,Win32,59.52380952
space,1.051125,space,0.77335,,,ms_large,0,148,148,148,1,1.129,0.3,False,None,Z09,r2,2021-05-10_22h27.03.112,subsecond_timing_v2,2021.1.2,Win32,59.52380952
space,1.12234,space,1.100645,,,ms_large,0,149,149,149,1,1.165,0.3,False,None,Z09,r2,2021-05-10_22h27.03.112,subsecond_timing_v2,2021.1.2,Win32,59.52380952
space,1.55288,space,0.900585,,,ms_large,0,150,150,150,1,0.882,0.1,False,None,Z09,r2,2021-05-10_22h27.03.112,subsecond_timing_v2,2021.1.2,Win32,59.52380952
space,1.075825,space,0.838395,,,ms_large,0,151,151,151,1,1.2,0.2,False,None,Z09,r2,2021-05-10_22h27.03.112,subsecond_timing_v2,2021.1.2,Win32,59.52380952
space,1.00797,space,0.806775,,,ms_large,0,152,152,152,1,0.953,0.3,False,None,Z09,r2,2021-05-10_22h27.03.112,subsecond_timing_v2,2021.1.2,Win32,59.52380952
space,1.056345,space,0.934995,,,ms_large,0,153,153,153,1,1.059,0.3,False,None,Z09,r2,2021-05-10_22h27.03.112,subsecond_timing_v2,2021.1.2,Win32,59.52380952
space,1.234475,space,0.8895,,,ms_large,0,154,154,154,1,0.918,0.2,False,None,Z09,r2,2021-05-10_22h27.03.112,subsecond_timing_v2,2021.1.2,Win32,59.52380952
space,1.199965,space,0.61889,,,ms_large,0,155,155,155,1,0.847,0.2,False,None,Z09,r2,2021-05-10_22h27.03.112,subsecond_timing_v2,2021.1.2,Win32,59.52380952
space,1.168155,space,0.908555,,,ms_large,0,156,156,156,1,1.129,0.3,False,None,Z09,r2,2021-05-10_22h27.03.112,subsecond_timing_v2,2021.1.2,Win32,59.52380952
space,1.035265,space,0.801185,,,ms_large,0,157,157,157,1,1.024,0.1,False,None,Z09,r2,2021-05-10_22h27.03.112,subsecond_timing_v2,2021.1.2,Win32,59.52380952
space,1.019595,space,1.024165,,,ms_large,0,158,158,158,1,0.988,0.2,False,None,Z09,r2,2021-05-10_22h27.03.112,subsecond_timing_v2,2021.1.2,Win32,59.52380952
space,1.06815,space,1.13446,,,ms_large,0,159,159,159,1,1.094,0.2,False,None,Z09,r2,2021-05-10_22h27.03.112,subsecond_timing_v2,2021.1.2,Win32,59.52380952
space,1.13966,space,1.11954,,,ms_large,0,160,160,160,1,1.129,0.2,False,None,Z09,r2,2021-05-10_22h27.03.112,subsecond_timing_v2,2021.1.2,Win32,59.52380952
space,1.100395,space,0.941475,,,ms_large,0,161,161,161,1,0.953,0.2,False,None,Z09,r2,2021-05-10_22h27.03.112,subsecond_timing_v2,2021.1.2,Win32,59.52380952
space,1.022905,space,0.90279,,,ms_large,0,162,162,162,1,0.847,0.3,False,None,Z09,r2,2021-05-10_22h27.03.112,subsecond_timing_v2,2021.1.2,Win32,59.52380952
space,1.14008,space,0.851015,,,ms_large,0,163,163,163,1,0.988,0.1,False,None,Z09,r2,2021-05-10_22h27.03.112,subsecond_timing_v2,2021.1.2,Win32,59.52380952
space,0.906705,space,0.401085,,,ms_large,0,164,164,164,1,0.882,0.1,False,None,Z09,r2,2021-05-10_22h27.03.112,subsecond_timing_v2,2021.1.2,Win32,59.52380952
space,1.067535,space,0.608,,,ms_large,0,165,165,165,1,1.094,0.1,False,None,Z09,r2,2021-05-10_22h27.03.112,subsecond_timing_v2,2021.1.2,Win32,59.52380952
space,1.10102,space,0.58846,,,ms_large,0,166,166,166,1,0.918,0.2,False,None,Z09,r2,2021-05-10_22h27.03.112,subsecond_timing_v2,2021.1.2,Win32,59.52380952
space,0.885915,space,0.76848,,,ms_large,0,167,167,167,1,1.024,0.3,False,None,Z09,r2,2021-05-10_22h27.03.112,subsecond_timing_v2,2021.1.2,Win32,59.52380952
space,0.933775,space,0.78849,,,ms_large,0,168,168,168,1,1.059,0.1,False,None,Z09,r2,2021-05-10_22h27.03.112,subsecond_timing_v2,2021.1.2,Win32,59.52380952
space,1.051965,space,0.9897,,,ms_large,0,169,169,169,1,1.2,0.3,False,None,Z09,r2,2021-05-10_22h27.03.112,subsecond_timing_v2,2021.1.2,Win32,59.52380952
space,0.901125,space,1.00061,,,ms_large,0,170,170,170,1,1.165,0.3,False,None,Z09,r2,2021-05-10_22h27.03.112,subsecond_timing_v2,2021.1.2,Win32,59.52380952
space,0.85826,space,0.938115,,,ms_large,0,171,171,171,1,1.094,0.1,False,None,Z09,r2,2021-05-10_22h27.03.112,subsecond_timing_v2,2021.1.2,Win32,59.52380952
space,0.950175,space,0.839765,,,ms_large,0,172,172,172,1,1.024,0.1,False,None,Z09,r2,2021-05-10_22h27.03.112,subsecond_timing_v2,2021.1.2,Win32,59.52380952
space,0.95047,space,1.0003,,,ms_large,0,173,173,173,1,0.988,0.2,False,None,Z09,r2,2021-05-10_22h27.03.112,subsecond_timing_v2,2021.1.2,Win32,59.52380952
space,1.167695,space,1.184235,,,ms_large,0,174,174,174,1,1.165,0.3,False,None,Z09,r2,2021-05-10_22h27.03.112,subsecond_timing_v2,2021.1.2,Win32,59.52380952
space,1.09205,space,0.45099,,,ms_large,0,175,175,175,1,0.847,0.1,False,None,Z09,r2,2021-05-10_22h27.03.112,subsecond_timing_v2,2021.1.2,Win32,59.52380952
space,1.01676,space,0.91784,,,ms_large,0,176,176,176,1,1.2,0.1,False,None,Z09,r2,2021-05-10_22h27.03.112,subsecond_timing_v2,2021.1.2,Win32,59.52380952
space,1.1003,space,0.767405,,,ms_large,0,177,177,177,1,0.882,0.1,False,None,Z09,r2,2021-05-10_22h27.03.112,subsecond_timing_v2,2021.1.2,Win32,59.52380952
space,0.917205,space,0.900365,,,ms_large,0,178,178,178,1,1.129,0.1,False,None,Z09,r2,2021-05-10_22h27.03.112,subsecond_timing_v2,2021.1.2,Win32,59.52380952
space,0.88348,space,0.953475,,,ms_large,0,179,179,179,1,0.953,0.1,False,None,Z09,r2,2021-05-10_22h27.03.112,subsecond_timing_v2,2021.1.2,Win32,59.52380952
space,1.00263,space,1.059865,,,ms_large,0,180,180,180,1,0.918,0.3,False,None,Z09,r2,2021-05-10_22h27.03.112,subsecond_timing_v2,2021.1.2,Win32,59.52380952
space,0.92144,space,1.13356,,,ms_large,0,181,181,181,1,1.059,0.2,False,None,Z09,r2,2021-05-10_22h27.03.112,subsecond_timing_v2,2021.1.2,Win32,59.52380952
space,0.992525,space,1.052235,,,ms_large,0,182,182,182,1,1.165,0.1,False,None,Z09,r2,2021-05-10_22h27.03.112,subsecond_timing_v2,2021.1.2,Win32,59.52380952
space,1.06701,space,1.133815,,,ms_large,0,183,183,183,1,1.024,0.3,False,None,Z09,r2,2021-05-10_22h27.03.112,subsecond_timing_v2,2021.1.2,Win32,59.52380952
space,2.049655,space,1.367495,,,ms_large,0,184,184,184,1,1.2,0.2,False,None,Z09,r2,2021-05-10_22h27.03.112,subsecond_timing_v2,2021.1.2,Win32,59.52380952
space,1.076865,space,1.067775,,,ms_large,0,185,185,185,1,0.882,0.3,False,None,Z09,r2,2021-05-10_22h27.03.112,subsecond_timing_v2,2021.1.2,Win32,59.52380952
space,1.255565,space,1.183405,,,ms_large,0,186,186,186,1,1.129,0.3,False,None,Z09,r2,2021-05-10_22h27.03.112,subsecond_timing_v2,2021.1.2,Win32,59.52380952
space,1.234175,space,0.784495,,,ms_large,0,187,187,187,1,0.953,0.1,False,None,Z09,r2,2021-05-10_22h27.03.112,subsecond_timing_v2,2021.1.2,Win32,59.52380952
space,1.150755,space,0.86683,,,ms_large,0,188,188,188,1,0.988,0.1,False,None,Z09,r2,2021-05-10_22h27.03.112,subsecond_timing_v2,2021.1.2,Win32,59.52380952
space,1.201075,space,0.816355,,,ms_large,0,189,189,189,1,0.918,0.3,False,None,Z09,r2,2021-05-10_22h27.03.112,subsecond_timing_v2,2021.1.2,Win32,59.52380952
space,1.10535,space,1.085585,,,ms_large,0,190,190,190,1,1.059,0.2,False,None,Z09,r2,2021-05-10_22h27.03.112,subsecond_timing_v2,2021.1.2,Win32,59.52380952
space,1.151205,space,0.55089,,,ms_large,0,191,191,191,1,0.847,0.3,False,None,Z09,r2,2021-05-10_22h27.03.112,subsecond_timing_v2,2021.1.2,Win32,59.52380952
space,1.13429,space,1.30029,,,ms_large,0,192,192,192,1,1.094,0.3,False,None,Z09,r2,2021-05-10_22h27.03.112,subsecond_timing_v2,2021.1.2,Win32,59.52380952
space,1.04004,space,0.61828,,,ms_large,0,193,193,193,1,0.847,0.1,False,None,Z09,r2,2021-05-10_22h27.03.112,subsecond_timing_v2,2021.1.2,Win32,59.52380952
space,1.169765,space,0.72205,,,ms_large,0,194,194,194,1,1.2,0.2,False,None,Z09,r2,2021-05-10_22h27.03.112,subsecond_timing_v2,2021.1.2,Win32,59.52380952
space,1.23997,space,0.96757,,,ms_large,0,195,195,195,1,0.918,0.3,False,None,Z09,r2,2021-05-10_22h27.03.112,subsecond_timing_v2,2021.1.2,Win32,59.52380952
space,1.205375,space,0.9581,,,ms_large,0,196,196,196,1,1.024,0.2,False,None,Z09,r2,2021-05-10_22h27.03.112,subsecond_timing_v2,2021.1.2,Win32,59.52380952
space,1.066625,space,1.234515,,,ms_large,0,197,197,197,1,1.094,0.1,False,None,Z09,r2,2021-05-10_22h27.03.112,subsecond_timing_v2,2021.1.2,Win32,59.52380952
space,0.91735,space,1.28569,,,ms_large,0,198,198,198,1,0.953,0.1,False,None,Z09,r2,2021-05-10_22h27.03.112,subsecond_timing_v2,2021.1.2,Win32,59.52380952
space,1.668285,space,1.30052,,,ms_large,0,199,199,199,1,1.129,0.3,False,None,Z09,r2,2021-05-10_22h27.03.112,subsecond_timing_v2,2021.1.2,Win32,59.52380952
space,1.32035,space,0.95048,,,ms_large,0,200,200,200,1,0.988,0.1,False,None,Z09,r2,2021-05-10_22h27.03.112,subsecond_timing_v2,2021.1.2,Win32,59.52380952
space,1.201315,space,0.934935,,,ms_large,0,201,201,201,1,0.882,0.3,False,None,Z09,r2,2021-05-10_22h27.03.112,subsecond_timing_v2,2021.1.2,Win32,59.52380952
space,1.13841,space,1.101015,,,ms_large,0,202,202,202,1,1.059,0.3,False,None,Z09,r2,2021-05-10_22h27.03.112,subsecond_timing_v2,2021.1.2,Win32,59.52380952
space,1.31814,space,1.050845,,,ms_large,0,203,203,203,1,1.165,0.2,False,None,Z09,r2,2021-05-10_22h27.03.112,subsecond_timing_v2,2021.1.2,Win32,59.52380952
space,1.200955,space,1.01701,,,ms_large,0,204,204,204,1,0.953,0.2,False,None,Z09,r2,2021-05-10_22h27.03.112,subsecond_timing_v2,2021.1.2,Win32,59.52380952
space,1.249725,space,1.20663,,,ms_large,0,205,205,205,1,1.094,0.3,False,None,Z09,r2,2021-05-10_22h27.03.112,subsecond_timing_v2,2021.1.2,Win32,59.52380952
space,1.200785,space,1.107845,,,ms_large,0,206,206,206,1,1.2,0.2,False,None,Z09,r2,2021-05-10_22h27.03.112,subsecond_timing_v2,2021.1.2,Win32,59.52380952
space,1.134165,space,0.400485,,,ms_large,0,207,207,207,1,1.024,0.1,False,None,Z09,r2,2021-05-10_22h27.03.112,subsecond_timing_v2,2021.1.2,Win32,59.52380952
space,0.95027,space,0.458145,,,ms_large,0,208,208,208,1,0.847,0.3,False,None,Z09,r2,2021-05-10_22h27.03.112,subsecond_timing_v2,2021.1.2,Win32,59.52380952
space,1.04224,space,0.73373,,,ms_large,0,209,209,209,1,1.129,0.2,False,None,Z09,r2,2021-05-10_22h27.03.112,subsecond_timing_v2,2021.1.2,Win32,59.52380952
space,1.009095,space,0.870715,,,ms_large,0,210,210,210,1,1.165,0.3,False,None,Z09,r2,2021-05-10_22h27.03.112,subsecond_timing_v2,2021.1.2,Win32,59.52380952
space,1.08401,space,0.83399,,,ms_large,0,211,211,211,1,0.988,0.3,False,None,Z09,r2,2021-05-10_22h27.03.112,subsecond_timing_v2,2021.1.2,Win32,59.52380952
space,1.017225,space,0.867375,,,ms_large,0,212,212,212,1,0.882,0.3,False,None,Z09,r2,2021-05-10_22h27.03.112,subsecond_timing_v2,2021.1.2,Win32,59.52380952
space,0.943005,space,1.088665,,,ms_large,0,213,213,213,1,1.059,0.2,False,None,Z09,r2,2021-05-10_22h27.03.112,subsecond_timing_v2,2021.1.2,Win32,59.52380952
space,0.988075,space,1.036795,,,ms_large,0,214,214,214,1,0.918,0.3,False,None,Z09,r2,2021-05-10_22h27.03.112,subsecond_timing_v2,2021.1.2,Win32,59.52380952
space,1.208745,space,0.98497,,,ms_large,0,215,215,215,1,0.953,0.2,False,None,Z09,r2,2021-05-10_22h27.03.112,subsecond_timing_v2,2021.1.2,Win32,59.52380952
space,1.117485,space,0.81726,,,ms_large,0,216,216,216,1,0.847,0.3,False,None,Z09,r2,2021-05-10_22h27.03.112,subsecond_timing_v2,2021.1.2,Win32,59.52380952
space,1.00972,space,0.9561,,,ms_large,0,217,217,217,1,1.024,0.1,False,None,Z09,r2,2021-05-10_22h27.03.112,subsecond_timing_v2,2021.1.2,Win32,59.52380952
space,1.08438,space,1.084815,,,ms_large,0,218,218,218,1,1.059,0.3,False,None,Z09,r2,2021-05-10_22h27.03.112,subsecond_timing_v2,2021.1.2,Win32,59.52380952
space,1.03914,space,1.001605,,,ms_large,0,219,219,219,1,0.988,0.1,False,None,Z09,r2,2021-05-10_22h27.03.112,subsecond_timing_v2,2021.1.2,Win32,59.52380952
space,1.03367,space,1.13397,,,ms_large,0,220,220,220,1,1.094,0.1,False,None,Z09,r2,2021-05-10_22h27.03.112,subsecond_timing_v2,2021.1.2,Win32,59.52380952
space,1.034165,space,0.58446,,,ms_large,0,221,221,221,1,0.918,0.3,False,None,Z09,r2,2021-05-10_22h27.03.112,subsecond_timing_v2,2021.1.2,Win32,59.52380952
space,1.00742,space,0.91815,,,ms_large,0,222,222,222,1,0.882,0.1,False,None,Z09,r2,2021-05-10_22h27.03.112,subsecond_timing_v2,2021.1.2,Win32,59.52380952
space,0.85775,space,1.416645,,,ms_large,0,223,223,223,1,1.129,0.2,False,None,Z09,r2,2021-05-10_22h27.03.112,subsecond_timing_v2,2021.1.2,Win32,59.52380952
space,1.350015,space,1.25815,,,ms_large,0,224,224,224,1,1.165,0.3,False,None,Z09,r2,2021-05-10_22h27.03.112,subsecond_timing_v2,2021.1.2,Win32,59.52380952
space,1.26618,space,1.3798,,,ms_large,0,225,225,225,1,1.2,0.3,False,None,Z09,r2,2021-05-10_22h27.03.112,subsecond_timing_v2,2021.1.2,Win32,59.52380952
