key_resp_start.keys,key_resp_start.rt,key_resp_stop.keys,key_resp_stop.rt,feedback_range,hit,stimulus_range,trials.thisRepN,trials.thisTrialN,trials.thisN,trials.thisIndex,trials.ran,stimulus_duration,onset,feedback,feedback_range_fromfile,participant,session,date,expName,psychopyVersion,OS,frameRate
space,0.688375,space,0.328475,0.3,FALSE,Training,0,0,0,0,1,1,0.3,True,0.3,Z11,r1,2021-04-29_12h06.02.172,subsecond_timing_v2,2021.1.2,Win32,60.0132029
space,0.518455,space,5.370965,0.3,FALSE,Training,0,1,1,1,1,0.75,0.1,True,0.3,Z11,r1,2021-04-29_12h06.02.172,subsecond_timing_v2,2021.1.2,Win32,60.0132029
space,0.455625,space,3.40245,0.3,FALSE,Training,0,2,2,2,1,0.5,0.1,True,0.3,Z11,r1,2021-04-29_12h06.02.172,subsecond_timing_v2,2021.1.2,Win32,60.0132029
space,0.40225,space,1.402,0.3,FALSE,Training,0,3,3,3,1,0.5,0.2,True,0.3,Z11,r1,2021-04-29_12h06.02.172,subsecond_timing_v2,2021.1.2,Win32,60.0132029
space,0.602555,space,1.40222,0.3,FALSE,Training,0,4,4,4,1,0.75,0.2,True,0.3,Z11,r1,2021-04-29_12h06.02.172,subsecond_timing_v2,2021.1.2,Win32,60.0132029
space,0.567105,space,1.518265,0.3,FALSE,Training,0,5,5,5,1,1,0.3,True,0.3,Z11,r1,2021-04-29_12h06.02.172,subsecond_timing_v2,2021.1.2,Win32,60.0132029
space,0.550185,space,1.01242,,,ms_small,0,6,6,6,1,0.706,0.2,False,None,Z11,r1,2021-04-29_12h06.02.172,subsecond_timing_v2,2021.1.2,Win32,60.0132029
space,0.583475,space,1.24283,,,ms_small,0,7,7,7,1,0.812,0.3,False,None,Z11,r1,2021-04-29_12h06.02.172,subsecond_timing_v2,2021.1.2,Win32,60.0132029
space,0.579475,space,1.082455,,,ms_small,0,8,8,8,1,0.847,0.1,False,None,Z11,r1,2021-04-29_12h06.02.172,subsecond_timing_v2,2021.1.2,Win32,60.0132029
space,0.568925,space,0.835655,,,ms_small,0,9,9,9,1,0.67,0.3,False,None,Z11,r1,2021-04-29_12h06.02.172,subsecond_timing_v2,2021.1.2,Win32,60.0132029
space,0.5049,space,1.071535,,,ms_small,0,10,10,10,1,0.988,0.1,False,None,Z11,r1,2021-04-29_12h06.02.172,subsecond_timing_v2,2021.1.2,Win32,60.0132029
space,0.40207,space,1.02523,,,ms_small,0,11,11,11,1,0.953,0.1,False,None,Z11,r1,2021-04-29_12h06.02.172,subsecond_timing_v2,2021.1.2,Win32,60.0132029
space,0.419295,space,1.06102,,,ms_small,0,12,12,12,1,0.882,0.3,False,None,Z11,r1,2021-04-29_12h06.02.172,subsecond_timing_v2,2021.1.2,Win32,60.0132029
space,0.324085,space,1.314065,,,ms_small,0,13,13,13,1,0.918,0.1,False,None,Z11,r1,2021-04-29_12h06.02.172,subsecond_timing_v2,2021.1.2,Win32,60.0132029
space,0.439175,space,1.415245,,,ms_small,0,14,14,14,1,0.776,0.2,False,None,Z11,r1,2021-04-29_12h06.02.172,subsecond_timing_v2,2021.1.2,Win32,60.0132029
space,0.468745,space,0.93854,,,ms_small,0,15,15,15,1,0.741,0.3,False,None,Z11,r1,2021-04-29_12h06.02.172,subsecond_timing_v2,2021.1.2,Win32,60.0132029
space,0.4245,space,1.103315,,,ms_small,0,16,16,16,1,1.024,0.3,False,None,Z11,r1,2021-04-29_12h06.02.172,subsecond_timing_v2,2021.1.2,Win32,60.0132029
space,0.57168,space,0.852145,,,ms_small,0,17,17,17,1,0.67,0.1,False,None,Z11,r1,2021-04-29_12h06.02.172,subsecond_timing_v2,2021.1.2,Win32,60.0132029
space,0.401605,space,0.936,,,ms_small,0,18,18,18,1,0.812,0.3,False,None,Z11,r1,2021-04-29_12h06.02.172,subsecond_timing_v2,2021.1.2,Win32,60.0132029
space,0.302625,space,0.938435,,,ms_small,0,19,19,19,1,0.953,0.3,False,None,Z11,r1,2021-04-29_12h06.02.172,subsecond_timing_v2,2021.1.2,Win32,60.0132029
space,0.419405,space,0.80196,,,ms_small,0,20,20,20,1,0.776,0.1,False,None,Z11,r1,2021-04-29_12h06.02.172,subsecond_timing_v2,2021.1.2,Win32,60.0132029
space,0.435925,space,0.8939,,,ms_small,0,21,21,21,1,0.741,0.2,False,None,Z11,r1,2021-04-29_12h06.02.172,subsecond_timing_v2,2021.1.2,Win32,60.0132029
space,0.31815,space,1.018065,,,ms_small,0,22,22,22,1,0.847,0.2,False,None,Z11,r1,2021-04-29_12h06.02.172,subsecond_timing_v2,2021.1.2,Win32,60.0132029
space,0.287495,space,0.90229,,,ms_small,0,23,23,23,1,1.024,0.1,False,None,Z11,r1,2021-04-29_12h06.02.172,subsecond_timing_v2,2021.1.2,Win32,60.0132029
space,0.336615,space,0.89456,,,ms_small,0,24,24,24,1,0.882,0.3,False,None,Z11,r1,2021-04-29_12h06.02.172,subsecond_timing_v2,2021.1.2,Win32,60.0132029
space,0.403435,space,1.16921,,,ms_small,0,25,25,25,1,0.988,0.1,False,None,Z11,r1,2021-04-29_12h06.02.172,subsecond_timing_v2,2021.1.2,Win32,60.0132029
space,0.53774,space,0.819875,,,ms_small,0,26,26,26,1,0.706,0.2,False,None,Z11,r1,2021-04-29_12h06.02.172,subsecond_timing_v2,2021.1.2,Win32,60.0132029
space,0.434845,space,1.252955,,,ms_small,0,27,27,27,1,0.918,0.3,False,None,Z11,r1,2021-04-29_12h06.02.172,subsecond_timing_v2,2021.1.2,Win32,60.0132029
space,0.42615,space,1.175275,,,ms_small,0,28,28,28,1,0.706,0.1,False,None,Z11,r1,2021-04-29_12h06.02.172,subsecond_timing_v2,2021.1.2,Win32,60.0132029
space,0.576195,space,1.01646,,,ms_small,0,29,29,29,1,0.918,0.1,False,None,Z11,r1,2021-04-29_12h06.02.172,subsecond_timing_v2,2021.1.2,Win32,60.0132029
space,0.49397,space,0.890305,,,ms_small,0,30,30,30,1,0.67,0.2,False,None,Z11,r1,2021-04-29_12h06.02.172,subsecond_timing_v2,2021.1.2,Win32,60.0132029
space,0.325,space,0.904935,,,ms_small,0,31,31,31,1,0.988,0.1,False,None,Z11,r1,2021-04-29_12h06.02.172,subsecond_timing_v2,2021.1.2,Win32,60.0132029
space,0.37117,space,1.053325,,,ms_small,0,32,32,32,1,0.953,0.2,False,None,Z11,r1,2021-04-29_12h06.02.172,subsecond_timing_v2,2021.1.2,Win32,60.0132029
space,0.49111,space,1.00346,,,ms_small,0,33,33,33,1,0.776,0.1,False,None,Z11,r1,2021-04-29_12h06.02.172,subsecond_timing_v2,2021.1.2,Win32,60.0132029
space,0.469245,space,0.717695,,,ms_small,0,34,34,34,1,0.847,0.1,False,None,Z11,r1,2021-04-29_12h06.02.172,subsecond_timing_v2,2021.1.2,Win32,60.0132029
space,0.280975,space,0.96897,,,ms_small,0,35,35,35,1,0.741,0.2,False,None,Z11,r1,2021-04-29_12h06.02.172,subsecond_timing_v2,2021.1.2,Win32,60.0132029
space,0.35331,space,0.852595,,,ms_small,0,36,36,36,1,0.812,0.1,False,None,Z11,r1,2021-04-29_12h06.02.172,subsecond_timing_v2,2021.1.2,Win32,60.0132029
space,0.352655,space,0.95241,,,ms_small,0,37,37,37,1,0.882,0.1,False,None,Z11,r1,2021-04-29_12h06.02.172,subsecond_timing_v2,2021.1.2,Win32,60.0132029
space,0.418855,space,1.219495,,,ms_small,0,38,38,38,1,1.024,0.3,False,None,Z11,r1,2021-04-29_12h06.02.172,subsecond_timing_v2,2021.1.2,Win32,60.0132029
space,0.31915,space,0.904835,,,ms_small,0,39,39,39,1,0.847,0.2,False,None,Z11,r1,2021-04-29_12h06.02.172,subsecond_timing_v2,2021.1.2,Win32,60.0132029
space,0.336325,space,0.96928,,,ms_small,0,40,40,40,1,0.918,0.2,False,None,Z11,r1,2021-04-29_12h06.02.172,subsecond_timing_v2,2021.1.2,Win32,60.0132029
space,0.26745,space,0.88499,,,ms_small,0,41,41,41,1,0.953,0.1,False,None,Z11,r1,2021-04-29_12h06.02.172,subsecond_timing_v2,2021.1.2,Win32,60.0132029
space,0.33476,space,0.905075,,,ms_small,0,42,42,42,1,0.882,0.3,False,None,Z11,r1,2021-04-29_12h06.02.172,subsecond_timing_v2,2021.1.2,Win32,60.0132029
space,0.342935,space,1.002795,,,ms_small,0,43,43,43,1,0.741,0.2,False,None,Z11,r1,2021-04-29_12h06.02.172,subsecond_timing_v2,2021.1.2,Win32,60.0132029
space,0.31827,space,0.95846,,,ms_small,0,44,44,44,1,0.67,0.3,False,None,Z11,r1,2021-04-29_12h06.02.172,subsecond_timing_v2,2021.1.2,Win32,60.0132029
space,0.321645,space,1.057595,,,ms_small,0,45,45,45,1,0.812,0.2,False,None,Z11,r1,2021-04-29_12h06.02.172,subsecond_timing_v2,2021.1.2,Win32,60.0132029
space,0.5604,space,1.22797,,,ms_small,0,46,46,46,1,1.024,0.3,False,None,Z11,r1,2021-04-29_12h06.02.172,subsecond_timing_v2,2021.1.2,Win32,60.0132029
space,0.44223,space,1.08482,,,ms_small,0,47,47,47,1,0.706,0.3,False,None,Z11,r1,2021-04-29_12h06.02.172,subsecond_timing_v2,2021.1.2,Win32,60.0132029
space,0.285815,space,1.28538,,,ms_small,0,48,48,48,1,0.988,0.2,False,None,Z11,r1,2021-04-29_12h06.02.172,subsecond_timing_v2,2021.1.2,Win32,60.0132029
space,0.342135,space,1.213665,,,ms_small,0,49,49,49,1,0.776,0.1,False,None,Z11,r1,2021-04-29_12h06.02.172,subsecond_timing_v2,2021.1.2,Win32,60.0132029
space,0.26213,space,1.32757,,,ms_small,0,50,50,50,1,0.988,0.1,False,None,Z11,r1,2021-04-29_12h06.02.172,subsecond_timing_v2,2021.1.2,Win32,60.0132029
space,0.570555,space,0.76379,,,ms_small,0,51,51,51,1,0.706,0.3,False,None,Z11,r1,2021-04-29_12h06.02.172,subsecond_timing_v2,2021.1.2,Win32,60.0132029
space,0.10381,space,1.09002,,,ms_small,0,52,52,52,1,0.953,0.2,False,None,Z11,r1,2021-04-29_12h06.02.172,subsecond_timing_v2,2021.1.2,Win32,60.0132029
space,0.308735,space,1.13547,,,ms_small,0,53,53,53,1,0.847,0.2,False,None,Z11,r1,2021-04-29_12h06.02.172,subsecond_timing_v2,2021.1.2,Win32,60.0132029
space,0.36945,space,1.36525,,,ms_small,0,54,54,54,1,0.918,0.3,False,None,Z11,r1,2021-04-29_12h06.02.172,subsecond_timing_v2,2021.1.2,Win32,60.0132029
space,0.435365,space,0.83525,,,ms_small,0,55,55,55,1,0.741,0.1,False,None,Z11,r1,2021-04-29_12h06.02.172,subsecond_timing_v2,2021.1.2,Win32,60.0132029
space,0.301975,space,0.85363,,,ms_small,0,56,56,56,1,0.67,0.1,False,None,Z11,r1,2021-04-29_12h06.02.172,subsecond_timing_v2,2021.1.2,Win32,60.0132029
space,0.292025,space,0.83605,,,ms_small,0,57,57,57,1,0.776,0.2,False,None,Z11,r1,2021-04-29_12h06.02.172,subsecond_timing_v2,2021.1.2,Win32,60.0132029
space,0.306695,space,0.85603,,,ms_small,0,58,58,58,1,0.882,0.1,False,None,Z11,r1,2021-04-29_12h06.02.172,subsecond_timing_v2,2021.1.2,Win32,60.0132029
space,0.370375,space,0.823245,,,ms_small,0,59,59,59,1,0.812,0.2,False,None,Z11,r1,2021-04-29_12h06.02.172,subsecond_timing_v2,2021.1.2,Win32,60.0132029
space,0.521755,space,1.09388,,,ms_small,0,60,60,60,1,1.024,0.2,False,None,Z11,r1,2021-04-29_12h06.02.172,subsecond_timing_v2,2021.1.2,Win32,60.0132029
space,0.296825,space,0.952815,,,ms_small,0,61,61,61,1,0.847,0.3,False,None,Z11,r1,2021-04-29_12h06.02.172,subsecond_timing_v2,2021.1.2,Win32,60.0132029
space,0.33568,space,0.826535,,,ms_small,0,62,62,62,1,0.67,0.1,False,None,Z11,r1,2021-04-29_12h06.02.172,subsecond_timing_v2,2021.1.2,Win32,60.0132029
space,0.28032,space,0.852715,,,ms_small,0,63,63,63,1,0.988,0.3,False,None,Z11,r1,2021-04-29_12h06.02.172,subsecond_timing_v2,2021.1.2,Win32,60.0132029
space,0.2899,space,0.85166,,,ms_small,0,64,64,64,1,0.812,0.1,False,None,Z11,r1,2021-04-29_12h06.02.172,subsecond_timing_v2,2021.1.2,Win32,60.0132029
space,0.27216,space,0.97731,,,ms_small,0,65,65,65,1,0.882,0.3,False,None,Z11,r1,2021-04-29_12h06.02.172,subsecond_timing_v2,2021.1.2,Win32,60.0132029
space,0.27707,space,0.968275,,,ms_small,0,66,66,66,1,0.918,0.1,False,None,Z11,r1,2021-04-29_12h06.02.172,subsecond_timing_v2,2021.1.2,Win32,60.0132029
space,0.26515,space,1.01505,,,ms_small,0,67,67,67,1,1.024,0.1,False,None,Z11,r1,2021-04-29_12h06.02.172,subsecond_timing_v2,2021.1.2,Win32,60.0132029
space,0.31883,space,0.88491,,,ms_small,0,68,68,68,1,0.776,0.2,False,None,Z11,r1,2021-04-29_12h06.02.172,subsecond_timing_v2,2021.1.2,Win32,60.0132029
space,0.268485,space,0.952935,,,ms_small,0,69,69,69,1,0.953,0.1,False,None,Z11,r1,2021-04-29_12h06.02.172,subsecond_timing_v2,2021.1.2,Win32,60.0132029
space,0.38717,space,0.84327,,,ms_small,0,70,70,70,1,0.706,0.1,False,None,Z11,r1,2021-04-29_12h06.02.172,subsecond_timing_v2,2021.1.2,Win32,60.0132029
space,0.29155,space,1.129335,,,ms_small,0,71,71,71,1,0.741,0.3,False,None,Z11,r1,2021-04-29_12h06.02.172,subsecond_timing_v2,2021.1.2,Win32,60.0132029
space,0.28652,space,1.002985,,,ms_small,0,72,72,72,1,0.882,0.2,False,None,Z11,r1,2021-04-29_12h06.02.172,subsecond_timing_v2,2021.1.2,Win32,60.0132029
space,0.29444,space,0.96647,,,ms_small,0,73,73,73,1,0.918,0.3,False,None,Z11,r1,2021-04-29_12h06.02.172,subsecond_timing_v2,2021.1.2,Win32,60.0132029
space,0.26946,space,1.02329,,,ms_small,0,74,74,74,1,0.988,0.2,False,None,Z11,r1,2021-04-29_12h06.02.172,subsecond_timing_v2,2021.1.2,Win32,60.0132029
space,0.352635,space,1.83597,,,ms_small,0,75,75,75,1,0.67,0.1,False,None,Z11,r1,2021-04-29_12h06.02.172,subsecond_timing_v2,2021.1.2,Win32,60.0132029
space,0.31853,space,1.052455,,,ms_small,0,76,76,76,1,0.776,0.3,False,None,Z11,r1,2021-04-29_12h06.02.172,subsecond_timing_v2,2021.1.2,Win32,60.0132029
space,0.42002,space,0.87099,,,ms_small,0,77,77,77,1,0.847,0.2,False,None,Z11,r1,2021-04-29_12h06.02.172,subsecond_timing_v2,2021.1.2,Win32,60.0132029
space,0.56844,space,3.079115,,,ms_small,0,78,78,78,1,1.024,0.2,False,None,Z11,r1,2021-04-29_12h06.02.172,subsecond_timing_v2,2021.1.2,Win32,60.0132029
space,0.413695,space,1.099105,,,ms_small,0,79,79,79,1,0.812,0.3,False,None,Z11,r1,2021-04-29_12h06.02.172,subsecond_timing_v2,2021.1.2,Win32,60.0132029
space,0.40221,space,0.719765,,,ms_small,0,80,80,80,1,0.953,0.1,False,None,Z11,r1,2021-04-29_12h06.02.172,subsecond_timing_v2,2021.1.2,Win32,60.0132029
space,0.339365,space,1.041485,,,ms_small,0,81,81,81,1,0.706,0.2,False,None,Z11,r1,2021-04-29_12h06.02.172,subsecond_timing_v2,2021.1.2,Win32,60.0132029
space,0.55986,space,0.48584,,,ms_small,0,82,82,82,1,0.741,0.3,False,None,Z11,r1,2021-04-29_12h06.02.172,subsecond_timing_v2,2021.1.2,Win32,60.0132029
space,0.40258,space,0.768875,,,ms_small,0,83,83,83,1,0.706,0.1,False,None,Z11,r1,2021-04-29_12h06.02.172,subsecond_timing_v2,2021.1.2,Win32,60.0132029
space,2.17318,space,0.81856,,,ms_small,0,84,84,84,1,0.812,0.2,False,None,Z11,r1,2021-04-29_12h06.02.172,subsecond_timing_v2,2021.1.2,Win32,60.0132029
space,0.65162,space,1.04022,,,ms_small,0,85,85,85,1,0.882,0.2,False,None,Z11,r1,2021-04-29_12h06.02.172,subsecond_timing_v2,2021.1.2,Win32,60.0132029
space,0.4983,space,0.893675,,,ms_small,0,86,86,86,1,0.776,0.1,False,None,Z11,r1,2021-04-29_12h06.02.172,subsecond_timing_v2,2021.1.2,Win32,60.0132029
space,0.635415,space,0.800915,,,ms_small,0,87,87,87,1,0.988,0.3,False,None,Z11,r1,2021-04-29_12h06.02.172,subsecond_timing_v2,2021.1.2,Win32,60.0132029
space,0.64034,space,0.769075,,,ms_small,0,88,88,88,1,0.67,0.2,False,None,Z11,r1,2021-04-29_12h06.02.172,subsecond_timing_v2,2021.1.2,Win32,60.0132029
space,0.702385,space,0.45814,,,ms_small,0,89,89,89,1,0.741,0.3,False,None,Z11,r1,2021-04-29_12h06.02.172,subsecond_timing_v2,2021.1.2,Win32,60.0132029
space,0.718625,space,0.6671,,,ms_small,0,90,90,90,1,0.918,0.1,False,None,Z11,r1,2021-04-29_12h06.02.172,subsecond_timing_v2,2021.1.2,Win32,60.0132029
space,0.7245,space,0.55258,,,ms_small,0,91,91,91,1,0.847,0.3,False,None,Z11,r1,2021-04-29_12h06.02.172,subsecond_timing_v2,2021.1.2,Win32,60.0132029
space,0.638685,space,0.603085,,,ms_small,0,92,92,92,1,0.953,0.2,False,None,Z11,r1,2021-04-29_12h06.02.172,subsecond_timing_v2,2021.1.2,Win32,60.0132029
space,0.721725,space,0.58858,,,ms_small,0,93,93,93,1,1.024,0.2,False,None,Z11,r1,2021-04-29_12h06.02.172,subsecond_timing_v2,2021.1.2,Win32,60.0132029
space,0.60566,space,0.768195,,,ms_small,0,94,94,94,1,0.882,0.1,False,None,Z11,r1,2021-04-29_12h06.02.172,subsecond_timing_v2,2021.1.2,Win32,60.0132029
space,0.472785,space,0.741595,,,ms_small,0,95,95,95,1,0.67,0.2,False,None,Z11,r1,2021-04-29_12h06.02.172,subsecond_timing_v2,2021.1.2,Win32,60.0132029
space,0.585555,space,0.64979,,,ms_small,0,96,96,96,1,0.918,0.3,False,None,Z11,r1,2021-04-29_12h06.02.172,subsecond_timing_v2,2021.1.2,Win32,60.0132029
space,0.40787,space,0.79508,,,ms_small,0,97,97,97,1,0.706,0.2,False,None,Z11,r1,2021-04-29_12h06.02.172,subsecond_timing_v2,2021.1.2,Win32,60.0132029
space,0.50679,space,0.768125,,,ms_small,0,98,98,98,1,0.988,0.1,False,None,Z11,r1,2021-04-29_12h06.02.172,subsecond_timing_v2,2021.1.2,Win32,60.0132029
space,0.262505,space,0.728005,,,ms_small,0,99,99,99,1,0.741,0.3,False,None,Z11,r1,2021-04-29_12h06.02.172,subsecond_timing_v2,2021.1.2,Win32,60.0132029
space,0.301985,space,0.652805,,,ms_small,0,100,100,100,1,1.024,0.2,False,None,Z11,r1,2021-04-29_12h06.02.172,subsecond_timing_v2,2021.1.2,Win32,60.0132029
space,0.43645,space,0.85328,,,ms_small,0,101,101,101,1,0.776,0.2,False,None,Z11,r1,2021-04-29_12h06.02.172,subsecond_timing_v2,2021.1.2,Win32,60.0132029
space,0.32871,space,0.83376,,,ms_small,0,102,102,102,1,0.812,0.2,False,None,Z11,r1,2021-04-29_12h06.02.172,subsecond_timing_v2,2021.1.2,Win32,60.0132029
space,0.300195,space,0.902315,,,ms_small,0,103,103,103,1,0.953,0.2,False,None,Z11,r1,2021-04-29_12h06.02.172,subsecond_timing_v2,2021.1.2,Win32,60.0132029
space,0.5856,space,0.75204,,,ms_small,0,104,104,104,1,0.847,0.1,False,None,Z11,r1,2021-04-29_12h06.02.172,subsecond_timing_v2,2021.1.2,Win32,60.0132029
space,0.452395,space,0.56955,,,ms_small,0,105,105,105,1,0.706,0.2,False,None,Z11,r1,2021-04-29_12h06.02.172,subsecond_timing_v2,2021.1.2,Win32,60.0132029
space,0.58552,space,0.65112,,,ms_small,0,106,106,106,1,0.741,0.1,False,None,Z11,r1,2021-04-29_12h06.02.172,subsecond_timing_v2,2021.1.2,Win32,60.0132029
space,0.452935,space,0.562505,,,ms_small,0,107,107,107,1,0.67,0.1,False,None,Z11,r1,2021-04-29_12h06.02.172,subsecond_timing_v2,2021.1.2,Win32,60.0132029
space,0.497055,space,0.70947,,,ms_small,0,108,108,108,1,0.847,0.1,False,None,Z11,r1,2021-04-29_12h06.02.172,subsecond_timing_v2,2021.1.2,Win32,60.0132029
space,0.604245,space,0.61908,,,ms_small,0,109,109,109,1,0.812,0.2,False,None,Z11,r1,2021-04-29_12h06.02.172,subsecond_timing_v2,2021.1.2,Win32,60.0132029
space,0.33501,space,0.819,,,ms_small,0,110,110,110,1,0.776,0.3,False,None,Z11,r1,2021-04-29_12h06.02.172,subsecond_timing_v2,2021.1.2,Win32,60.0132029
space,0.302705,space,0.76906,,,ms_small,0,111,111,111,1,0.988,0.3,False,None,Z11,r1,2021-04-29_12h06.02.172,subsecond_timing_v2,2021.1.2,Win32,60.0132029
space,0.338325,space,0.775075,,,ms_small,0,112,112,112,1,0.918,0.1,False,None,Z11,r1,2021-04-29_12h06.02.172,subsecond_timing_v2,2021.1.2,Win32,60.0132029
space,0.455545,space,1.094445,,,ms_small,0,113,113,113,1,0.882,0.1,False,None,Z11,r1,2021-04-29_12h06.02.172,subsecond_timing_v2,2021.1.2,Win32,60.0132029
space,0.518265,space,0.734635,,,ms_small,0,114,114,114,1,1.024,0.2,False,None,Z11,r1,2021-04-29_12h06.02.172,subsecond_timing_v2,2021.1.2,Win32,60.0132029
space,0.329155,space,0.851375,,,ms_small,0,115,115,115,1,0.953,0.2,False,None,Z11,r1,2021-04-29_12h06.02.172,subsecond_timing_v2,2021.1.2,Win32,60.0132029
space,0.569125,space,0.852295,,,ms_small,0,116,116,116,1,0.847,0.3,False,None,Z11,r1,2021-04-29_12h06.02.172,subsecond_timing_v2,2021.1.2,Win32,60.0132029
space,0.46889,space,2.534985,,,ms_small,0,117,117,117,1,0.882,0.2,False,None,Z11,r1,2021-04-29_12h06.02.172,subsecond_timing_v2,2021.1.2,Win32,60.0132029
space,0.43965,space,1.16196,,,ms_small,0,118,118,118,1,1.024,0.1,False,None,Z11,r1,2021-04-29_12h06.02.172,subsecond_timing_v2,2021.1.2,Win32,60.0132029
space,0.536485,space,0.843615,,,ms_small,0,119,119,119,1,0.706,0.2,False,None,Z11,r1,2021-04-29_12h06.02.172,subsecond_timing_v2,2021.1.2,Win32,60.0132029
space,0.41095,space,1.09064,,,ms_small,0,120,120,120,1,0.918,0.1,False,None,Z11,r1,2021-04-29_12h06.02.172,subsecond_timing_v2,2021.1.2,Win32,60.0132029
space,0.377915,space,1.08756,,,ms_small,0,121,121,121,1,0.776,0.1,False,None,Z11,r1,2021-04-29_12h06.02.172,subsecond_timing_v2,2021.1.2,Win32,60.0132029
space,0.427355,space,1.17642,,,ms_small,0,122,122,122,1,0.953,0.3,False,None,Z11,r1,2021-04-29_12h06.02.172,subsecond_timing_v2,2021.1.2,Win32,60.0132029
space,0.41821,space,1.00128,,,ms_small,0,123,123,123,1,0.67,0.1,False,None,Z11,r1,2021-04-29_12h06.02.172,subsecond_timing_v2,2021.1.2,Win32,60.0132029
space,0.2703,space,1.21856,,,ms_small,0,124,124,124,1,0.812,0.2,False,None,Z11,r1,2021-04-29_12h06.02.172,subsecond_timing_v2,2021.1.2,Win32,60.0132029
space,0.35232,space,0.94389,,,ms_small,0,125,125,125,1,0.988,0.2,False,None,Z11,r1,2021-04-29_12h06.02.172,subsecond_timing_v2,2021.1.2,Win32,60.0132029
space,0.352125,space,1.102315,,,ms_small,0,126,126,126,1,0.741,0.3,False,None,Z11,r1,2021-04-29_12h06.02.172,subsecond_timing_v2,2021.1.2,Win32,60.0132029
space,0.45153,space,0.83488,,,ms_small,0,127,127,127,1,0.67,0.1,False,None,Z11,r1,2021-04-29_12h06.02.172,subsecond_timing_v2,2021.1.2,Win32,60.0132029
space,0.25763,space,0.918065,,,ms_small,0,128,128,128,1,0.776,0.3,False,None,Z11,r1,2021-04-29_12h06.02.172,subsecond_timing_v2,2021.1.2,Win32,60.0132029
space,0.268965,space,1.0011,,,ms_small,0,129,129,129,1,0.847,0.1,False,None,Z11,r1,2021-04-29_12h06.02.172,subsecond_timing_v2,2021.1.2,Win32,60.0132029
space,0.369475,space,0.770375,,,ms_small,0,130,130,130,1,0.812,0.1,False,None,Z11,r1,2021-04-29_12h06.02.172,subsecond_timing_v2,2021.1.2,Win32,60.0132029
space,0.09697,space,1.11617,,,ms_small,0,131,131,131,1,0.882,0.1,False,None,Z11,r1,2021-04-29_12h06.02.172,subsecond_timing_v2,2021.1.2,Win32,60.0132029
space,0.33601,space,0.91881,,,ms_small,0,132,132,132,1,1.024,0.2,False,None,Z11,r1,2021-04-29_12h06.02.172,subsecond_timing_v2,2021.1.2,Win32,60.0132029
space,0.30458,space,1.137865,,,ms_small,0,133,133,133,1,0.953,0.3,False,None,Z11,r1,2021-04-29_12h06.02.172,subsecond_timing_v2,2021.1.2,Win32,60.0132029
space,0.338125,space,1.135905,,,ms_small,0,134,134,134,1,0.988,0.2,False,None,Z11,r1,2021-04-29_12h06.02.172,subsecond_timing_v2,2021.1.2,Win32,60.0132029
space,0.50213,space,0.73792,,,ms_small,0,135,135,135,1,0.706,0.1,False,None,Z11,r1,2021-04-29_12h06.02.172,subsecond_timing_v2,2021.1.2,Win32,60.0132029
space,0.374905,space,0.786755,,,ms_small,0,136,136,136,1,0.918,0.1,False,None,Z11,r1,2021-04-29_12h06.02.172,subsecond_timing_v2,2021.1.2,Win32,60.0132029
space,0.34216,space,0.874585,,,ms_small,0,137,137,137,1,0.741,0.1,False,None,Z11,r1,2021-04-29_12h06.02.172,subsecond_timing_v2,2021.1.2,Win32,60.0132029
space,0.251325,space,1.035395,,,ms_small,0,138,138,138,1,0.741,0.3,False,None,Z11,r1,2021-04-29_12h06.02.172,subsecond_timing_v2,2021.1.2,Win32,60.0132029
space,0.36908,space,0.972435,,,ms_small,0,139,139,139,1,0.988,0.2,False,None,Z11,r1,2021-04-29_12h06.02.172,subsecond_timing_v2,2021.1.2,Win32,60.0132029
space,0.290725,space,1.095325,,,ms_small,0,140,140,140,1,0.812,0.3,False,None,Z11,r1,2021-04-29_12h06.02.172,subsecond_timing_v2,2021.1.2,Win32,60.0132029
space,0.279355,space,1.17255,,,ms_small,0,141,141,141,1,0.918,0.2,False,None,Z11,r1,2021-04-29_12h06.02.172,subsecond_timing_v2,2021.1.2,Win32,60.0132029
space,0.235565,space,1.251505,,,ms_small,0,142,142,142,1,0.847,0.2,False,None,Z11,r1,2021-04-29_12h06.02.172,subsecond_timing_v2,2021.1.2,Win32,60.0132029
space,0.252185,space,1.20161,,,ms_small,0,143,143,143,1,0.953,0.1,False,None,Z11,r1,2021-04-29_12h06.02.172,subsecond_timing_v2,2021.1.2,Win32,60.0132029
space,0.274895,space,0.92306,,,ms_small,0,144,144,144,1,0.776,0.3,False,None,Z11,r1,2021-04-29_12h06.02.172,subsecond_timing_v2,2021.1.2,Win32,60.0132029
space,0.271315,space,1.185835,,,ms_small,0,145,145,145,1,0.706,0.3,False,None,Z11,r1,2021-04-29_12h06.02.172,subsecond_timing_v2,2021.1.2,Win32,60.0132029
space,0.35742,space,1.2781,,,ms_small,0,146,146,146,1,1.024,0.1,False,None,Z11,r1,2021-04-29_12h06.02.172,subsecond_timing_v2,2021.1.2,Win32,60.0132029
space,0.318125,space,0.6697,,,ms_small,0,147,147,147,1,0.882,0.2,False,None,Z11,r1,2021-04-29_12h06.02.172,subsecond_timing_v2,2021.1.2,Win32,60.0132029
space,0.302895,space,1.0026,,,ms_small,0,148,148,148,1,0.67,0.3,False,None,Z11,r1,2021-04-29_12h06.02.172,subsecond_timing_v2,2021.1.2,Win32,60.0132029
space,0.487955,space,0.76848,,,ms_small,0,149,149,149,1,0.67,0.3,False,None,Z11,r1,2021-04-29_12h06.02.172,subsecond_timing_v2,2021.1.2,Win32,60.0132029
space,0.324795,space,0.86256,,,ms_small,0,150,150,150,1,0.741,0.3,False,None,Z11,r1,2021-04-29_12h06.02.172,subsecond_timing_v2,2021.1.2,Win32,60.0132029
space,0.24026,space,1.01862,,,ms_small,0,151,151,151,1,0.918,0.1,False,None,Z11,r1,2021-04-29_12h06.02.172,subsecond_timing_v2,2021.1.2,Win32,60.0132029
space,0.24611,space,0.983985,,,ms_small,0,152,152,152,1,0.706,0.3,False,None,Z11,r1,2021-04-29_12h06.02.172,subsecond_timing_v2,2021.1.2,Win32,60.0132029
space,0.08225,space,1.100505,,,ms_small,0,153,153,153,1,0.988,0.2,False,None,Z11,r1,2021-04-29_12h06.02.172,subsecond_timing_v2,2021.1.2,Win32,60.0132029
space,0.306875,space,1.05802,,,ms_small,0,154,154,154,1,0.847,0.2,False,None,Z11,r1,2021-04-29_12h06.02.172,subsecond_timing_v2,2021.1.2,Win32,60.0132029
space,0.351735,space,0.89253,,,ms_small,0,155,155,155,1,0.776,0.3,False,None,Z11,r1,2021-04-29_12h06.02.172,subsecond_timing_v2,2021.1.2,Win32,60.0132029
space,0.31792,space,1.0909,,,ms_small,0,156,156,156,1,0.882,0.2,False,None,Z11,r1,2021-04-29_12h06.02.172,subsecond_timing_v2,2021.1.2,Win32,60.0132029
space,0.488385,space,0.95972,,,ms_small,0,157,157,157,1,0.812,0.1,False,None,Z11,r1,2021-04-29_12h06.02.172,subsecond_timing_v2,2021.1.2,Win32,60.0132029
space,0.227335,space,1.15131,,,ms_small,0,158,158,158,1,1.024,0.1,False,None,Z11,r1,2021-04-29_12h06.02.172,subsecond_timing_v2,2021.1.2,Win32,60.0132029
space,0.31079,space,1.35563,,,ms_small,0,159,159,159,1,0.953,0.2,False,None,Z11,r1,2021-04-29_12h06.02.172,subsecond_timing_v2,2021.1.2,Win32,60.0132029
space,0.30891,space,1.176535,,,ms_small,0,160,160,160,1,0.812,0.2,False,None,Z11,r1,2021-04-29_12h06.02.172,subsecond_timing_v2,2021.1.2,Win32,60.0132029
space,0.434505,space,1.21738,,,ms_small,0,161,161,161,1,0.67,0.1,False,None,Z11,r1,2021-04-29_12h06.02.172,subsecond_timing_v2,2021.1.2,Win32,60.0132029
space,0.40938,space,1.13062,,,ms_small,0,162,162,162,1,0.953,0.1,False,None,Z11,r1,2021-04-29_12h06.02.172,subsecond_timing_v2,2021.1.2,Win32,60.0132029
space,0.24016,space,1.151025,,,ms_small,0,163,163,163,1,0.882,0.3,False,None,Z11,r1,2021-04-29_12h06.02.172,subsecond_timing_v2,2021.1.2,Win32,60.0132029
space,0.367735,space,1.10213,,,ms_small,0,164,164,164,1,0.988,0.1,False,None,Z11,r1,2021-04-29_12h06.02.172,subsecond_timing_v2,2021.1.2,Win32,60.0132029
space,0.53864,space,0.78897,,,ms_small,0,165,165,165,1,0.706,0.1,False,None,Z11,r1,2021-04-29_12h06.02.172,subsecond_timing_v2,2021.1.2,Win32,60.0132029
space,0.34385,space,1.107025,,,ms_small,0,166,166,166,1,1.024,0.3,False,None,Z11,r1,2021-04-29_12h06.02.172,subsecond_timing_v2,2021.1.2,Win32,60.0132029
space,0.216605,space,1.113975,,,ms_small,0,167,167,167,1,0.847,0.3,False,None,Z11,r1,2021-04-29_12h06.02.172,subsecond_timing_v2,2021.1.2,Win32,60.0132029
space,0.38704,space,0.78615,,,ms_small,0,168,168,168,1,0.741,0.3,False,None,Z11,r1,2021-04-29_12h06.02.172,subsecond_timing_v2,2021.1.2,Win32,60.0132029
space,0.36865,space,0.935925,,,ms_small,0,169,169,169,1,0.918,0.2,False,None,Z11,r1,2021-04-29_12h06.02.172,subsecond_timing_v2,2021.1.2,Win32,60.0132029
space,0.284505,space,0.96986,,,ms_small,0,170,170,170,1,0.776,0.1,False,None,Z11,r1,2021-04-29_12h06.02.172,subsecond_timing_v2,2021.1.2,Win32,60.0132029
space,0.18615,space,1.435275,,,ms_small,0,171,171,171,1,0.882,0.3,False,None,Z11,r1,2021-04-29_12h06.02.172,subsecond_timing_v2,2021.1.2,Win32,60.0132029
space,0.335565,space,0.77024,,,ms_small,0,172,172,172,1,0.741,0.1,False,None,Z11,r1,2021-04-29_12h06.02.172,subsecond_timing_v2,2021.1.2,Win32,60.0132029
space,0.10257,space,1.052165,,,ms_small,0,173,173,173,1,0.988,0.1,False,None,Z11,r1,2021-04-29_12h06.02.172,subsecond_timing_v2,2021.1.2,Win32,60.0132029
space,0.452665,space,1.10245,,,ms_small,0,174,174,174,1,0.706,0.2,False,None,Z11,r1,2021-04-29_12h06.02.172,subsecond_timing_v2,2021.1.2,Win32,60.0132029
space,0.26911,space,1.11929,,,ms_small,0,175,175,175,1,0.918,0.2,False,None,Z11,r1,2021-04-29_12h06.02.172,subsecond_timing_v2,2021.1.2,Win32,60.0132029
space,0.30309,space,1.152595,,,ms_small,0,176,176,176,1,0.953,0.2,False,None,Z11,r1,2021-04-29_12h06.02.172,subsecond_timing_v2,2021.1.2,Win32,60.0132029
space,0.42075,space,0.735875,,,ms_small,0,177,177,177,1,0.67,0.2,False,None,Z11,r1,2021-04-29_12h06.02.172,subsecond_timing_v2,2021.1.2,Win32,60.0132029
space,0.23586,space,1.03583,,,ms_small,0,178,178,178,1,0.847,0.3,False,None,Z11,r1,2021-04-29_12h06.02.172,subsecond_timing_v2,2021.1.2,Win32,60.0132029
space,0.319215,space,1.119115,,,ms_small,0,179,179,179,1,0.776,0.1,False,None,Z11,r1,2021-04-29_12h06.02.172,subsecond_timing_v2,2021.1.2,Win32,60.0132029
space,0.319265,space,0.86871,,,ms_small,0,180,180,180,1,0.812,0.1,False,None,Z11,r1,2021-04-29_12h06.02.172,subsecond_timing_v2,2021.1.2,Win32,60.0132029
space,1.169265,space,2.56907,,,ms_small,0,181,181,181,1,1.024,0.2,False,None,Z11,r1,2021-04-29_12h06.02.172,subsecond_timing_v2,2021.1.2,Win32,60.0132029
space,0.31848,space,0.936085,,,ms_small,0,182,182,182,1,0.706,0.3,False,None,Z11,r1,2021-04-29_12h06.02.172,subsecond_timing_v2,2021.1.2,Win32,60.0132029
space,0.28352,space,1.219615,,,ms_small,0,183,183,183,1,0.988,0.1,False,None,Z11,r1,2021-04-29_12h06.02.172,subsecond_timing_v2,2021.1.2,Win32,60.0132029
space,0.29991,space,1.272415,,,ms_small,0,184,184,184,1,1.024,0.3,False,None,Z11,r1,2021-04-29_12h06.02.172,subsecond_timing_v2,2021.1.2,Win32,60.0132029
space,0.28589,space,2.570065,,,ms_small,0,185,185,185,1,0.847,0.1,False,None,Z11,r1,2021-04-29_12h06.02.172,subsecond_timing_v2,2021.1.2,Win32,60.0132029
space,0.41927,space,0.735755,,,ms_small,0,186,186,186,1,0.741,0.1,False,None,Z11,r1,2021-04-29_12h06.02.172,subsecond_timing_v2,2021.1.2,Win32,60.0132029
space,0.352425,space,2.951905,,,ms_small,0,187,187,187,1,0.776,0.3,False,None,Z11,r1,2021-04-29_12h06.02.172,subsecond_timing_v2,2021.1.2,Win32,60.0132029
space,0.35345,space,0.985945,,,ms_small,0,188,188,188,1,0.812,0.3,False,None,Z11,r1,2021-04-29_12h06.02.172,subsecond_timing_v2,2021.1.2,Win32,60.0132029
space,0.052015,space,1.101895,,,ms_small,0,189,189,189,1,0.918,0.3,False,None,Z11,r1,2021-04-29_12h06.02.172,subsecond_timing_v2,2021.1.2,Win32,60.0132029
space,0.30296,space,1.069135,,,ms_small,0,190,190,190,1,0.67,0.1,False,None,Z11,r1,2021-04-29_12h06.02.172,subsecond_timing_v2,2021.1.2,Win32,60.0132029
space,0.354295,space,1.202485,,,ms_small,0,191,191,191,1,0.882,0.2,False,None,Z11,r1,2021-04-29_12h06.02.172,subsecond_timing_v2,2021.1.2,Win32,60.0132029
space,0.40286,space,0.869295,,,ms_small,0,192,192,192,1,0.953,0.1,False,None,Z11,r1,2021-04-29_12h06.02.172,subsecond_timing_v2,2021.1.2,Win32,60.0132029
space,0.31935,space,1.102545,,,ms_small,0,193,193,193,1,0.776,0.1,False,None,Z11,r1,2021-04-29_12h06.02.172,subsecond_timing_v2,2021.1.2,Win32,60.0132029
space,0.369185,space,1.303955,,,ms_small,0,194,194,194,1,0.988,0.3,False,None,Z11,r1,2021-04-29_12h06.02.172,subsecond_timing_v2,2021.1.2,Win32,60.0132029
space,0.40259,space,1.419175,,,ms_small,0,195,195,195,1,0.953,0.1,False,None,Z11,r1,2021-04-29_12h06.02.172,subsecond_timing_v2,2021.1.2,Win32,60.0132029
space,0.30263,space,1.08609,,,ms_small,0,196,196,196,1,0.741,0.3,False,None,Z11,r1,2021-04-29_12h06.02.172,subsecond_timing_v2,2021.1.2,Win32,60.0132029
space,0.401965,space,1.135655,,,ms_small,0,197,197,197,1,0.67,0.3,False,None,Z11,r1,2021-04-29_12h06.02.172,subsecond_timing_v2,2021.1.2,Win32,60.0132029
space,0.439295,space,0.8692,,,ms_small,0,198,198,198,1,0.847,0.3,False,None,Z11,r1,2021-04-29_12h06.02.172,subsecond_timing_v2,2021.1.2,Win32,60.0132029
space,0.30605,space,1.191125,,,ms_small,0,199,199,199,1,0.882,0.2,False,None,Z11,r1,2021-04-29_12h06.02.172,subsecond_timing_v2,2021.1.2,Win32,60.0132029
space,0.468315,space,0.81835,,,ms_small,0,200,200,200,1,0.706,0.3,False,None,Z11,r1,2021-04-29_12h06.02.172,subsecond_timing_v2,2021.1.2,Win32,60.0132029
space,0.269,space,1.13925,,,ms_small,0,201,201,201,1,0.812,0.1,False,None,Z11,r1,2021-04-29_12h06.02.172,subsecond_timing_v2,2021.1.2,Win32,60.0132029
space,0.268375,space,1.10476,,,ms_small,0,202,202,202,1,1.024,0.2,False,None,Z11,r1,2021-04-29_12h06.02.172,subsecond_timing_v2,2021.1.2,Win32,60.0132029
space,0.252665,space,1.26779,,,ms_small,0,203,203,203,1,0.918,0.1,False,None,Z11,r1,2021-04-29_12h06.02.172,subsecond_timing_v2,2021.1.2,Win32,60.0132029
space,0.339595,space,0.968545,,,ms_small,0,204,204,204,1,0.776,0.2,False,None,Z11,r1,2021-04-29_12h06.02.172,subsecond_timing_v2,2021.1.2,Win32,60.0132029
space,0.42425,space,0.979255,,,ms_small,0,205,205,205,1,0.67,0.1,False,None,Z11,r1,2021-04-29_12h06.02.172,subsecond_timing_v2,2021.1.2,Win32,60.0132029
space,0.24878,space,1.17275,,,ms_small,0,206,206,206,1,0.706,0.3,False,None,Z11,r1,2021-04-29_12h06.02.172,subsecond_timing_v2,2021.1.2,Win32,60.0132029
space,0.368925,space,1.219835,,,ms_small,0,207,207,207,1,0.988,0.2,False,None,Z11,r1,2021-04-29_12h06.02.172,subsecond_timing_v2,2021.1.2,Win32,60.0132029
space,0.269,space,1.05232,,,ms_small,0,208,208,208,1,0.847,0.3,False,None,Z11,r1,2021-04-29_12h06.02.172,subsecond_timing_v2,2021.1.2,Win32,60.0132029
space,0.31965,space,2.348475,,,ms_small,0,209,209,209,1,0.953,0.2,False,None,Z11,r1,2021-04-29_12h06.02.172,subsecond_timing_v2,2021.1.2,Win32,60.0132029
space,0.319285,space,0.872015,,,ms_small,0,210,210,210,1,0.812,0.1,False,None,Z11,r1,2021-04-29_12h06.02.172,subsecond_timing_v2,2021.1.2,Win32,60.0132029
space,0.284715,space,1.291825,,,ms_small,0,211,211,211,1,0.918,0.1,False,None,Z11,r1,2021-04-29_12h06.02.172,subsecond_timing_v2,2021.1.2,Win32,60.0132029
space,0.52127,space,0.836535,,,ms_small,0,212,212,212,1,0.741,0.3,False,None,Z11,r1,2021-04-29_12h06.02.172,subsecond_timing_v2,2021.1.2,Win32,60.0132029
space,0.211235,space,0.90187,,,ms_small,0,213,213,213,1,0.882,0.3,False,None,Z11,r1,2021-04-29_12h06.02.172,subsecond_timing_v2,2021.1.2,Win32,60.0132029
space,0.301845,space,1.1051,,,ms_small,0,214,214,214,1,1.024,0.1,False,None,Z11,r1,2021-04-29_12h06.02.172,subsecond_timing_v2,2021.1.2,Win32,60.0132029
space,0.22426,space,0.986075,,,ms_small,0,216,216,216,1,0.706,0.2,False,None,Z11,r1,2021-04-29_12h06.02.172,subsecond_timing_v2,2021.1.2,Win32,60.0132029
space,0.248015,space,1.23921,,,ms_small,0,217,217,217,1,0.882,0.1,False,None,Z11,r1,2021-04-29_12h06.02.172,subsecond_timing_v2,2021.1.2,Win32,60.0132029
space,0.318595,space,0.854495,,,ms_small,0,218,218,218,1,0.776,0.2,False,None,Z11,r1,2021-04-29_12h06.02.172,subsecond_timing_v2,2021.1.2,Win32,60.0132029
space,0.13552,space,1.10719,,,ms_small,0,219,219,219,1,0.847,0.2,False,None,Z11,r1,2021-04-29_12h06.02.172,subsecond_timing_v2,2021.1.2,Win32,60.0132029
space,0.28555,space,1.0681,,,ms_small,0,220,220,220,1,0.812,0.1,False,None,Z11,r1,2021-04-29_12h06.02.172,subsecond_timing_v2,2021.1.2,Win32,60.0132029
space,0.468115,space,1.319755,,,ms_small,0,221,221,221,1,0.988,0.1,False,None,Z11,r1,2021-04-29_12h06.02.172,subsecond_timing_v2,2021.1.2,Win32,60.0132029
space,0.3479,space,1.16439,,,ms_small,0,222,222,222,1,0.918,0.1,False,None,Z11,r1,2021-04-29_12h06.02.172,subsecond_timing_v2,2021.1.2,Win32,60.0132029
space,0.48461,space,2.094825,,,ms_small,0,223,223,223,1,0.67,0.2,False,None,Z11,r1,2021-04-29_12h06.02.172,subsecond_timing_v2,2021.1.2,Win32,60.0132029
space,0.227185,space,1.17946,,,ms_small,0,224,224,224,1,0.741,0.3,False,None,Z11,r1,2021-04-29_12h06.02.172,subsecond_timing_v2,2021.1.2,Win32,60.0132029
space,0.269175,space,0.861545,,,ms_small,0,225,225,225,1,0.953,0.1,False,None,Z11,r1,2021-04-29_12h06.02.172,subsecond_timing_v2,2021.1.2,Win32,60.0132029
