key_resp_start.keys,key_resp_start.rt,key_resp_stop.keys,key_resp_stop.rt,feedback_range,hit,stimulus_range,trials.thisRepN,trials.thisTrialN,trials.thisN,trials.thisIndex,trials.ran,stimulus_duration,onset,feedback,feedback_range_fromfile,participant,session,date,expName,psychopyVersion,OS,frameRate
space,0.761285,space,0.942165,0.3,TRUE,Training,0,0,0,0,1,1,0.2,True,0.3,Z12,r2,2021-05-07_12h06.34.461,subsecond_timing_v2,2021.1.2,Win32,60.05645307
space,0.835065,space,0.804155,0.3,TRUE,Training,0,1,1,1,1,0.75,0.2,True,0.3,Z12,r2,2021-05-07_12h06.34.461,subsecond_timing_v2,2021.1.2,Win32,60.05645307
space,0.87126,space,0.3743,0.3,TRUE,Training,0,2,2,2,1,0.5,0.2,True,0.3,Z12,r2,2021-05-07_12h06.34.461,subsecond_timing_v2,2021.1.2,Win32,60.05645307
space,0.69715,space,0.36449,0.3,TRUE,Training,0,3,3,3,1,0.5,0.3,True,0.3,Z12,r2,2021-05-07_12h06.34.461,subsecond_timing_v2,2021.1.2,Win32,60.05645307
space,0.66434,space,0.79423,0.3,TRUE,Training,0,4,4,4,1,0.75,0.3,True,0.3,Z12,r2,2021-05-07_12h06.34.461,subsecond_timing_v2,2021.1.2,Win32,60.05645307
space,0.683075,space,1.104175,0.3,TRUE,Training,0,5,5,5,1,1,0.3,True,0.3,Z12,r2,2021-05-07_12h06.34.461,subsecond_timing_v2,2021.1.2,Win32,60.05645307
space,0.84684,space,0.97222,,,ms_large,0,6,6,6,1,1.165,0.2,False,None,Z12,r2,2021-05-07_12h06.34.461,subsecond_timing_v2,2021.1.2,Win32,60.05645307
space,0.774,space,0.934265,,,ms_large,0,7,7,7,1,1.094,0.3,False,None,Z12,r2,2021-05-07_12h06.34.461,subsecond_timing_v2,2021.1.2,Win32,60.05645307
space,0.847995,space,1.03015,,,ms_large,0,8,8,8,1,1.2,0.3,False,None,Z12,r2,2021-05-07_12h06.34.461,subsecond_timing_v2,2021.1.2,Win32,60.05645307
space,0.76945,space,0.913555,,,ms_large,0,9,9,9,1,1.024,0.1,False,None,Z12,r2,2021-05-07_12h06.34.461,subsecond_timing_v2,2021.1.2,Win32,60.05645307
space,1.09631,space,0.97941,,,ms_large,0,10,10,10,1,0.953,0.3,False,None,Z12,r2,2021-05-07_12h06.34.461,subsecond_timing_v2,2021.1.2,Win32,60.05645307
space,0.564545,space,0.88961,,,ms_large,0,11,11,11,1,0.847,0.1,False,None,Z12,r2,2021-05-07_12h06.34.461,subsecond_timing_v2,2021.1.2,Win32,60.05645307
space,0.639555,space,0.78419,,,ms_large,0,12,12,12,1,0.882,0.3,False,None,Z12,r2,2021-05-07_12h06.34.461,subsecond_timing_v2,2021.1.2,Win32,60.05645307
space,0.887325,space,0.95747,,,ms_large,0,13,13,13,1,1.129,0.1,False,None,Z12,r2,2021-05-07_12h06.34.461,subsecond_timing_v2,2021.1.2,Win32,60.05645307
space,0.989285,space,0.935325,,,ms_large,0,14,14,14,1,1.059,0.3,False,None,Z12,r2,2021-05-07_12h06.34.461,subsecond_timing_v2,2021.1.2,Win32,60.05645307
space,1.11323,space,1.071745,,,ms_large,0,15,15,15,1,0.918,0.3,False,None,Z12,r2,2021-05-07_12h06.34.461,subsecond_timing_v2,2021.1.2,Win32,60.05645307
space,1.2078,space,0.853725,,,ms_large,0,16,16,16,1,0.988,0.1,False,None,Z12,r2,2021-05-07_12h06.34.461,subsecond_timing_v2,2021.1.2,Win32,60.05645307
space,1.5936,space,1.161085,,,ms_large,0,17,17,17,1,0.953,0.2,False,None,Z12,r2,2021-05-07_12h06.34.461,subsecond_timing_v2,2021.1.2,Win32,60.05645307
space,1.13016,space,1.04485,,,ms_large,0,18,18,18,1,1.129,0.3,False,None,Z12,r2,2021-05-07_12h06.34.461,subsecond_timing_v2,2021.1.2,Win32,60.05645307
space,1.095415,space,0.978495,,,ms_large,0,19,19,19,1,0.988,0.2,False,None,Z12,r2,2021-05-07_12h06.34.461,subsecond_timing_v2,2021.1.2,Win32,60.05645307
space,1.140365,space,0.9408,,,ms_large,0,20,20,20,1,1.024,0.1,False,None,Z12,r2,2021-05-07_12h06.34.461,subsecond_timing_v2,2021.1.2,Win32,60.05645307
space,1.035265,space,0.988185,,,ms_large,0,21,21,21,1,1.165,0.1,False,None,Z12,r2,2021-05-07_12h06.34.461,subsecond_timing_v2,2021.1.2,Win32,60.05645307
space,1.029445,space,1.09452,,,ms_large,0,22,22,22,1,1.2,0.1,False,None,Z12,r2,2021-05-07_12h06.34.461,subsecond_timing_v2,2021.1.2,Win32,60.05645307
space,1.100195,space,1.13189,,,ms_large,0,23,23,23,1,0.882,0.2,False,None,Z12,r2,2021-05-07_12h06.34.461,subsecond_timing_v2,2021.1.2,Win32,60.05645307
space,1.035285,space,0.89507,,,ms_large,0,24,24,24,1,0.847,0.3,False,None,Z12,r2,2021-05-07_12h06.34.461,subsecond_timing_v2,2021.1.2,Win32,60.05645307
space,1.05123,space,0.87294,,,ms_large,0,25,25,25,1,1.094,0.1,False,None,Z12,r2,2021-05-07_12h06.34.461,subsecond_timing_v2,2021.1.2,Win32,60.05645307
space,1.02326,space,1.019005,,,ms_large,0,26,26,26,1,1.059,0.1,False,None,Z12,r2,2021-05-07_12h06.34.461,subsecond_timing_v2,2021.1.2,Win32,60.05645307
space,1.05607,space,0.829455,,,ms_large,0,27,27,27,1,0.918,0.3,False,None,Z12,r2,2021-05-07_12h06.34.461,subsecond_timing_v2,2021.1.2,Win32,60.05645307
space,1.031025,space,0.87361,,,ms_large,0,28,28,28,1,0.988,0.2,False,None,Z12,r2,2021-05-07_12h06.34.461,subsecond_timing_v2,2021.1.2,Win32,60.05645307
space,0.749285,space,1.20127,,,ms_large,0,29,29,29,1,1.165,0.2,False,None,Z12,r2,2021-05-07_12h06.34.461,subsecond_timing_v2,2021.1.2,Win32,60.05645307
space,0.971105,space,1.050115,,,ms_large,0,30,30,30,1,1.129,0.1,False,None,Z12,r2,2021-05-07_12h06.34.461,subsecond_timing_v2,2021.1.2,Win32,60.05645307
space,1.260125,space,0.852265,,,ms_large,0,31,31,31,1,1.059,0.1,False,None,Z12,r2,2021-05-07_12h06.34.461,subsecond_timing_v2,2021.1.2,Win32,60.05645307
space,1.00088,space,0.862585,,,ms_large,0,32,32,32,1,0.918,0.3,False,None,Z12,r2,2021-05-07_12h06.34.461,subsecond_timing_v2,2021.1.2,Win32,60.05645307
space,0.971325,space,0.897895,,,ms_large,0,33,33,33,1,1.2,0.3,False,None,Z12,r2,2021-05-07_12h06.34.461,subsecond_timing_v2,2021.1.2,Win32,60.05645307
space,1.050625,space,0.65228,,,ms_large,0,34,34,34,1,0.847,0.1,False,None,Z12,r2,2021-05-07_12h06.34.461,subsecond_timing_v2,2021.1.2,Win32,60.05645307
space,1.171055,space,0.84135,,,ms_large,0,35,35,35,1,1.024,0.1,False,None,Z12,r2,2021-05-07_12h06.34.461,subsecond_timing_v2,2021.1.2,Win32,60.05645307
space,1.063625,space,0.715005,,,ms_large,0,36,36,36,1,0.882,0.1,False,None,Z12,r2,2021-05-07_12h06.34.461,subsecond_timing_v2,2021.1.2,Win32,60.05645307
space,0.99486,space,0.93078,,,ms_large,0,37,37,37,1,1.094,0.2,False,None,Z12,r2,2021-05-07_12h06.34.461,subsecond_timing_v2,2021.1.2,Win32,60.05645307
space,1.0255,space,0.828785,,,ms_large,0,38,38,38,1,0.953,0.1,False,None,Z12,r2,2021-05-07_12h06.34.461,subsecond_timing_v2,2021.1.2,Win32,60.05645307
space,1.051985,space,1.07907,,,ms_large,0,39,39,39,1,1.165,0.2,False,None,Z12,r2,2021-05-07_12h06.34.461,subsecond_timing_v2,2021.1.2,Win32,60.05645307
space,1.1534,space,1.20235,,,ms_large,0,40,40,40,1,0.953,0.1,False,None,Z12,r2,2021-05-07_12h06.34.461,subsecond_timing_v2,2021.1.2,Win32,60.05645307
space,1.06861,space,0.926745,,,ms_large,0,41,41,41,1,0.988,0.1,False,None,Z12,r2,2021-05-07_12h06.34.461,subsecond_timing_v2,2021.1.2,Win32,60.05645307
space,1.12986,space,0.85627,,,ms_large,0,42,42,42,1,1.094,0.1,False,None,Z12,r2,2021-05-07_12h06.34.461,subsecond_timing_v2,2021.1.2,Win32,60.05645307
space,0.98525,space,1.004835,,,ms_large,0,43,43,43,1,1.129,0.3,False,None,Z12,r2,2021-05-07_12h06.34.461,subsecond_timing_v2,2021.1.2,Win32,60.05645307
space,0.68594,space,0.994805,,,ms_large,0,44,44,44,1,0.882,0.2,False,None,Z12,r2,2021-05-07_12h06.34.461,subsecond_timing_v2,2021.1.2,Win32,60.05645307
space,1.02184,space,1.16065,,,ms_large,0,45,45,45,1,1.2,0.1,False,None,Z12,r2,2021-05-07_12h06.34.461,subsecond_timing_v2,2021.1.2,Win32,60.05645307
space,0.920265,space,1.243555,,,ms_large,0,46,46,46,1,1.024,0.1,False,None,Z12,r2,2021-05-07_12h06.34.461,subsecond_timing_v2,2021.1.2,Win32,60.05645307
space,1.02999,space,0.89568,,,ms_large,0,47,47,47,1,0.918,0.2,False,None,Z12,r2,2021-05-07_12h06.34.461,subsecond_timing_v2,2021.1.2,Win32,60.05645307
space,0.997505,space,0.89539,,,ms_large,0,48,48,48,1,0.847,0.1,False,None,Z12,r2,2021-05-07_12h06.34.461,subsecond_timing_v2,2021.1.2,Win32,60.05645307
space,0.88165,space,0.985815,,,ms_large,0,49,49,49,1,1.059,0.3,False,None,Z12,r2,2021-05-07_12h06.34.461,subsecond_timing_v2,2021.1.2,Win32,60.05645307
space,0.914035,space,0.939745,,,ms_large,0,50,50,50,1,0.953,0.2,False,None,Z12,r2,2021-05-07_12h06.34.461,subsecond_timing_v2,2021.1.2,Win32,60.05645307
space,0.68221,space,0.928545,,,ms_large,0,51,51,51,1,1.024,0.3,False,None,Z12,r2,2021-05-07_12h06.34.461,subsecond_timing_v2,2021.1.2,Win32,60.05645307
space,0.7729,space,0.97861,,,ms_large,0,52,52,52,1,1.165,0.3,False,None,Z12,r2,2021-05-07_12h06.34.461,subsecond_timing_v2,2021.1.2,Win32,60.05645307
space,0.85101,space,0.94988,,,ms_large,0,53,53,53,1,0.847,0.3,False,None,Z12,r2,2021-05-07_12h06.34.461,subsecond_timing_v2,2021.1.2,Win32,60.05645307
space,0.90576,space,1.094785,,,ms_large,0,54,54,54,1,1.2,0.1,False,None,Z12,r2,2021-05-07_12h06.34.461,subsecond_timing_v2,2021.1.2,Win32,60.05645307
space,0.84902,space,1.07726,,,ms_large,0,55,55,55,1,0.988,0.3,False,None,Z12,r2,2021-05-07_12h06.34.461,subsecond_timing_v2,2021.1.2,Win32,60.05645307
space,0.80123,space,0.940915,,,ms_large,0,56,56,56,1,0.882,0.1,False,None,Z12,r2,2021-05-07_12h06.34.461,subsecond_timing_v2,2021.1.2,Win32,60.05645307
space,0.781355,space,1.120725,,,ms_large,0,57,57,57,1,1.059,0.1,False,None,Z12,r2,2021-05-07_12h06.34.461,subsecond_timing_v2,2021.1.2,Win32,60.05645307
space,3.3663,space,0.997645,,,ms_large,0,58,58,58,1,1.094,0.1,False,None,Z12,r2,2021-05-07_12h06.34.461,subsecond_timing_v2,2021.1.2,Win32,60.05645307
space,0.648745,space,0.863235,,,ms_large,0,59,59,59,1,1.129,0.3,False,None,Z12,r2,2021-05-07_12h06.34.461,subsecond_timing_v2,2021.1.2,Win32,60.05645307
space,0.786825,space,0.851215,,,ms_large,0,60,60,60,1,0.918,0.3,False,None,Z12,r2,2021-05-07_12h06.34.461,subsecond_timing_v2,2021.1.2,Win32,60.05645307
space,0.817625,space,0.900365,,,ms_large,0,61,61,61,1,1.129,0.1,False,None,Z12,r2,2021-05-07_12h06.34.461,subsecond_timing_v2,2021.1.2,Win32,60.05645307
space,0.92288,space,1.03367,,,ms_large,0,62,62,62,1,1.165,0.3,False,None,Z12,r2,2021-05-07_12h06.34.461,subsecond_timing_v2,2021.1.2,Win32,60.05645307
space,1.119015,space,0.912695,,,ms_large,0,63,63,63,1,0.953,0.2,False,None,Z12,r2,2021-05-07_12h06.34.461,subsecond_timing_v2,2021.1.2,Win32,60.05645307
space,1.21564,space,0.9386,,,ms_large,0,64,64,64,1,1.094,0.2,False,None,Z12,r2,2021-05-07_12h06.34.461,subsecond_timing_v2,2021.1.2,Win32,60.05645307
space,0.87142,space,0.62993,,,ms_large,0,65,65,65,1,0.882,0.1,False,None,Z12,r2,2021-05-07_12h06.34.461,subsecond_timing_v2,2021.1.2,Win32,60.05645307
space,1.213835,space,0.841625,,,ms_large,0,66,66,66,1,0.918,0.2,False,None,Z12,r2,2021-05-07_12h06.34.461,subsecond_timing_v2,2021.1.2,Win32,60.05645307
space,0.93036,space,0.691415,,,ms_large,0,67,67,67,1,0.988,0.1,False,None,Z12,r2,2021-05-07_12h06.34.461,subsecond_timing_v2,2021.1.2,Win32,60.05645307
space,0.98953,space,1.233785,,,ms_large,0,68,68,68,1,1.024,0.1,False,None,Z12,r2,2021-05-07_12h06.34.461,subsecond_timing_v2,2021.1.2,Win32,60.05645307
space,0.886595,space,0.746945,,,ms_large,0,69,69,69,1,1.2,0.1,False,None,Z12,r2,2021-05-07_12h06.34.461,subsecond_timing_v2,2021.1.2,Win32,60.05645307
space,0.86341,space,0.80194,,,ms_large,0,70,70,70,1,1.059,0.1,False,None,Z12,r2,2021-05-07_12h06.34.461,subsecond_timing_v2,2021.1.2,Win32,60.05645307
space,0.77176,space,0.641925,,,ms_large,0,71,71,71,1,0.847,0.1,False,None,Z12,r2,2021-05-07_12h06.34.461,subsecond_timing_v2,2021.1.2,Win32,60.05645307
space,1.033685,space,0.998095,,,ms_large,0,72,72,72,1,1.094,0.2,False,None,Z12,r2,2021-05-07_12h06.34.461,subsecond_timing_v2,2021.1.2,Win32,60.05645307
space,5.524875,space,1.11097,,,ms_large,0,73,73,73,1,0.918,0.3,False,None,Z12,r2,2021-05-07_12h06.34.461,subsecond_timing_v2,2021.1.2,Win32,60.05645307
space,1.062645,space,1.116435,,,ms_large,0,74,74,74,1,0.953,0.2,False,None,Z12,r2,2021-05-07_12h06.34.461,subsecond_timing_v2,2021.1.2,Win32,60.05645307
space,0.94696,space,0.89518,,,ms_large,0,75,75,75,1,0.882,0.2,False,None,Z12,r2,2021-05-07_12h06.34.461,subsecond_timing_v2,2021.1.2,Win32,60.05645307
space,0.964765,space,0.92364,,,ms_large,0,76,76,76,1,0.988,0.3,False,None,Z12,r2,2021-05-07_12h06.34.461,subsecond_timing_v2,2021.1.2,Win32,60.05645307
space,0.853355,space,1.01694,,,ms_large,0,77,77,77,1,1.2,0.1,False,None,Z12,r2,2021-05-07_12h06.34.461,subsecond_timing_v2,2021.1.2,Win32,60.05645307
space,0.94669,space,0.96156,,,ms_large,0,78,78,78,1,1.024,0.2,False,None,Z12,r2,2021-05-07_12h06.34.461,subsecond_timing_v2,2021.1.2,Win32,60.05645307
space,0.86369,space,1.316535,,,ms_large,0,79,79,79,1,1.129,0.1,False,None,Z12,r2,2021-05-07_12h06.34.461,subsecond_timing_v2,2021.1.2,Win32,60.05645307
space,0.896525,space,1.05478,,,ms_large,0,80,80,80,1,1.165,0.3,False,None,Z12,r2,2021-05-07_12h06.34.461,subsecond_timing_v2,2021.1.2,Win32,60.05645307
space,0.905275,space,0.906605,,,ms_large,0,81,81,81,1,1.059,0.2,False,None,Z12,r2,2021-05-07_12h06.34.461,subsecond_timing_v2,2021.1.2,Win32,60.05645307
space,0.923065,space,1.031945,,,ms_large,0,82,82,82,1,0.847,0.1,False,None,Z12,r2,2021-05-07_12h06.34.461,subsecond_timing_v2,2021.1.2,Win32,60.05645307
space,0.906495,space,0.871955,,,ms_large,0,83,83,83,1,1.024,0.1,False,None,Z12,r2,2021-05-07_12h06.34.461,subsecond_timing_v2,2021.1.2,Win32,60.05645307
space,0.847685,space,1.09852,,,ms_large,0,84,84,84,1,1.059,0.3,False,None,Z12,r2,2021-05-07_12h06.34.461,subsecond_timing_v2,2021.1.2,Win32,60.05645307
space,1.0723,space,0.762845,,,ms_large,0,85,85,85,1,0.918,0.1,False,None,Z12,r2,2021-05-07_12h06.34.461,subsecond_timing_v2,2021.1.2,Win32,60.05645307
space,1.12986,space,0.86614,,,ms_large,0,86,86,86,1,1.165,0.1,False,None,Z12,r2,2021-05-07_12h06.34.461,subsecond_timing_v2,2021.1.2,Win32,60.05645307
space,0.95564,space,1.04749,,,ms_large,0,87,87,87,1,0.953,0.1,False,None,Z12,r2,2021-05-07_12h06.34.461,subsecond_timing_v2,2021.1.2,Win32,60.05645307
space,0.85597,space,0.86217,,,ms_large,0,88,88,88,1,0.882,0.1,False,None,Z12,r2,2021-05-07_12h06.34.461,subsecond_timing_v2,2021.1.2,Win32,60.05645307
space,1.19567,space,0.85205,,,ms_large,0,89,89,89,1,0.847,0.1,False,None,Z12,r2,2021-05-07_12h06.34.461,subsecond_timing_v2,2021.1.2,Win32,60.05645307
space,0.830765,space,1.426775,,,ms_large,0,90,90,90,1,1.094,0.1,False,None,Z12,r2,2021-05-07_12h06.34.461,subsecond_timing_v2,2021.1.2,Win32,60.05645307
space,0.81785,space,1.32655,,,ms_large,0,91,91,91,1,1.129,0.2,False,None,Z12,r2,2021-05-07_12h06.34.461,subsecond_timing_v2,2021.1.2,Win32,60.05645307
space,0.874225,space,1.450015,,,ms_large,0,92,92,92,1,1.2,0.1,False,None,Z12,r2,2021-05-07_12h06.34.461,subsecond_timing_v2,2021.1.2,Win32,60.05645307
space,0.7805,space,1.43421,,,ms_large,0,93,93,93,1,0.988,0.1,False,None,Z12,r2,2021-05-07_12h06.34.461,subsecond_timing_v2,2021.1.2,Win32,60.05645307
space,0.963365,space,1.38638,,,ms_large,0,94,94,94,1,1.129,0.3,False,None,Z12,r2,2021-05-07_12h06.34.461,subsecond_timing_v2,2021.1.2,Win32,60.05645307
space,0.83018,space,1.743515,,,ms_large,0,95,95,95,1,1.165,0.2,False,None,Z12,r2,2021-05-07_12h06.34.461,subsecond_timing_v2,2021.1.2,Win32,60.05645307
space,1.015935,space,1.62508,,,ms_large,0,96,96,96,1,1.024,0.3,False,None,Z12,r2,2021-05-07_12h06.34.461,subsecond_timing_v2,2021.1.2,Win32,60.05645307
space,1.367335,space,1.827565,,,ms_large,0,97,97,97,1,1.094,0.1,False,None,Z12,r2,2021-05-07_12h06.34.461,subsecond_timing_v2,2021.1.2,Win32,60.05645307
space,1.13298,space,2.04845,,,ms_large,0,98,98,98,1,1.059,0.2,False,None,Z12,r2,2021-05-07_12h06.34.461,subsecond_timing_v2,2021.1.2,Win32,60.05645307
space,0.748485,space,1.93444,,,ms_large,0,99,99,99,1,1.2,0.1,False,None,Z12,r2,2021-05-07_12h06.34.461,subsecond_timing_v2,2021.1.2,Win32,60.05645307
space,1.16324,space,1.860465,,,ms_large,0,100,100,100,1,0.882,0.3,False,None,Z12,r2,2021-05-07_12h06.34.461,subsecond_timing_v2,2021.1.2,Win32,60.05645307
space,1.236645,space,1.04549,,,ms_large,0,101,101,101,1,0.918,0.3,False,None,Z12,r2,2021-05-07_12h06.34.461,subsecond_timing_v2,2021.1.2,Win32,60.05645307
space,2.10066,space,1.549265,,,ms_large,0,102,102,102,1,0.988,0.3,False,None,Z12,r2,2021-05-07_12h06.34.461,subsecond_timing_v2,2021.1.2,Win32,60.05645307
space,1.24526,space,1.114305,,,ms_large,0,103,103,103,1,0.847,0.1,False,None,Z12,r2,2021-05-07_12h06.34.461,subsecond_timing_v2,2021.1.2,Win32,60.05645307
space,0.771725,space,1.395525,,,ms_large,0,104,104,104,1,0.953,0.3,False,None,Z12,r2,2021-05-07_12h06.34.461,subsecond_timing_v2,2021.1.2,Win32,60.05645307
space,1.105,space,1.51218,,,ms_large,0,105,105,105,1,0.847,0.3,False,None,Z12,r2,2021-05-07_12h06.34.461,subsecond_timing_v2,2021.1.2,Win32,60.05645307
space,0.893395,space,1.179585,,,ms_large,0,106,106,106,1,1.094,0.3,False,None,Z12,r2,2021-05-07_12h06.34.461,subsecond_timing_v2,2021.1.2,Win32,60.05645307
space,0.78174,space,1.032345,,,ms_large,0,107,107,107,1,1.129,0.3,False,None,Z12,r2,2021-05-07_12h06.34.461,subsecond_timing_v2,2021.1.2,Win32,60.05645307
space,1.018995,space,1.277305,,,ms_large,0,108,108,108,1,0.882,0.3,False,None,Z12,r2,2021-05-07_12h06.34.461,subsecond_timing_v2,2021.1.2,Win32,60.05645307
space,0.702275,space,1.60902,,,ms_large,0,109,109,109,1,0.953,0.2,False,None,Z12,r2,2021-05-07_12h06.34.461,subsecond_timing_v2,2021.1.2,Win32,60.05645307
space,0.526225,space,1.34592,,,ms_large,0,110,110,110,1,0.988,0.1,False,None,Z12,r2,2021-05-07_12h06.34.461,subsecond_timing_v2,2021.1.2,Win32,60.05645307
space,1.4068,space,1.25871,,,ms_large,0,111,111,111,1,1.165,0.3,False,None,Z12,r2,2021-05-07_12h06.34.461,subsecond_timing_v2,2021.1.2,Win32,60.05645307
space,0.85281,space,0.75495,,,ms_large,0,112,112,112,1,0.918,0.2,False,None,Z12,r2,2021-05-07_12h06.34.461,subsecond_timing_v2,2021.1.2,Win32,60.05645307
space,0.85129,space,0.88737,,,ms_large,0,113,113,113,1,1.059,0.3,False,None,Z12,r2,2021-05-07_12h06.34.461,subsecond_timing_v2,2021.1.2,Win32,60.05645307
space,0.830805,space,1.083725,,,ms_large,0,114,114,114,1,1.2,0.2,False,None,Z12,r2,2021-05-07_12h06.34.461,subsecond_timing_v2,2021.1.2,Win32,60.05645307
space,0.812905,space,1.01573,,,ms_large,0,115,115,115,1,1.024,0.3,False,None,Z12,r2,2021-05-07_12h06.34.461,subsecond_timing_v2,2021.1.2,Win32,60.05645307
space,0.658415,space,1.065775,,,ms_large,0,116,116,116,1,1.129,0.3,False,None,Z12,r2,2021-05-07_12h06.34.461,subsecond_timing_v2,2021.1.2,Win32,60.05645307
space,0.803145,space,1.04021,,,ms_large,0,117,117,117,1,1.2,0.3,False,None,Z12,r2,2021-05-07_12h06.34.461,subsecond_timing_v2,2021.1.2,Win32,60.05645307
space,0.68229,space,1.372255,,,ms_large,0,118,118,118,1,1.024,0.3,False,None,Z12,r2,2021-05-07_12h06.34.461,subsecond_timing_v2,2021.1.2,Win32,60.05645307
space,1.035175,space,1.077415,,,ms_large,0,119,119,119,1,1.094,0.1,False,None,Z12,r2,2021-05-07_12h06.34.461,subsecond_timing_v2,2021.1.2,Win32,60.05645307
space,0.79363,space,1.285905,,,ms_large,0,120,120,120,1,1.059,0.1,False,None,Z12,r2,2021-05-07_12h06.34.461,subsecond_timing_v2,2021.1.2,Win32,60.05645307
space,0.871905,space,1.57484,,,ms_large,0,121,121,121,1,0.988,0.2,False,None,Z12,r2,2021-05-07_12h06.34.461,subsecond_timing_v2,2021.1.2,Win32,60.05645307
space,0.762725,space,1.513515,,,ms_large,0,122,122,122,1,0.847,0.3,False,None,Z12,r2,2021-05-07_12h06.34.461,subsecond_timing_v2,2021.1.2,Win32,60.05645307
space,0.85832,space,1.778205,,,ms_large,0,123,123,123,1,0.953,0.2,False,None,Z12,r2,2021-05-07_12h06.34.461,subsecond_timing_v2,2021.1.2,Win32,60.05645307
space,0.707275,space,1.64667,,,ms_large,0,124,124,124,1,0.918,0.2,False,None,Z12,r2,2021-05-07_12h06.34.461,subsecond_timing_v2,2021.1.2,Win32,60.05645307
space,0.73287,space,1.61651,,,ms_large,0,125,125,125,1,1.165,0.2,False,None,Z12,r2,2021-05-07_12h06.34.461,subsecond_timing_v2,2021.1.2,Win32,60.05645307
space,1.18412,space,1.193925,,,ms_large,0,126,126,126,1,0.882,0.3,False,None,Z12,r2,2021-05-07_12h06.34.461,subsecond_timing_v2,2021.1.2,Win32,60.05645307
space,0.80972,space,1.14523,,,ms_large,0,127,127,127,1,0.882,0.2,False,None,Z12,r2,2021-05-07_12h06.34.461,subsecond_timing_v2,2021.1.2,Win32,60.05645307
space,0.9532,space,1.276715,,,ms_large,0,128,128,128,1,1.094,0.2,False,None,Z12,r2,2021-05-07_12h06.34.461,subsecond_timing_v2,2021.1.2,Win32,60.05645307
space,1.36708,space,1.403395,,,ms_large,0,129,129,129,1,1.024,0.3,False,None,Z12,r2,2021-05-07_12h06.34.461,subsecond_timing_v2,2021.1.2,Win32,60.05645307
space,2.242335,space,2.15814,,,ms_large,0,130,130,130,1,0.847,0.1,False,None,Z12,r2,2021-05-07_12h06.34.461,subsecond_timing_v2,2021.1.2,Win32,60.05645307
space,8.30626,space,1.824035,,,ms_large,0,131,131,131,1,1.2,0.1,False,None,Z12,r2,2021-05-07_12h06.34.461,subsecond_timing_v2,2021.1.2,Win32,60.05645307
space,0.814635,space,1.483315,,,ms_large,0,132,132,132,1,1.059,0.3,False,None,Z12,r2,2021-05-07_12h06.34.461,subsecond_timing_v2,2021.1.2,Win32,60.05645307
space,0.946425,space,1.40985,,,ms_large,0,133,133,133,1,0.918,0.1,False,None,Z12,r2,2021-05-07_12h06.34.461,subsecond_timing_v2,2021.1.2,Win32,60.05645307
space,1.08017,space,1.532855,,,ms_large,0,134,134,134,1,1.129,0.3,False,None,Z12,r2,2021-05-07_12h06.34.461,subsecond_timing_v2,2021.1.2,Win32,60.05645307
space,1.23705,space,1.83589,,,ms_large,0,135,135,135,1,1.165,0.2,False,None,Z12,r2,2021-05-07_12h06.34.461,subsecond_timing_v2,2021.1.2,Win32,60.05645307
space,2.111715,space,1.845195,,,ms_large,0,136,136,136,1,0.953,0.1,False,None,Z12,r2,2021-05-07_12h06.34.461,subsecond_timing_v2,2021.1.2,Win32,60.05645307
space,1.010155,space,1.56415,,,ms_large,0,137,137,137,1,0.988,0.3,False,None,Z12,r2,2021-05-07_12h06.34.461,subsecond_timing_v2,2021.1.2,Win32,60.05645307
space,1.98262,space,2.00122,,,ms_large,0,138,138,138,1,0.847,0.1,False,None,Z12,r2,2021-05-07_12h06.34.461,subsecond_timing_v2,2021.1.2,Win32,60.05645307
space,1.069085,space,1.743235,,,ms_large,0,139,139,139,1,0.882,0.1,False,None,Z12,r2,2021-05-07_12h06.34.461,subsecond_timing_v2,2021.1.2,Win32,60.05645307
space,2.32184,space,1.69191,,,ms_large,0,140,140,140,1,0.988,0.3,False,None,Z12,r2,2021-05-07_12h06.34.461,subsecond_timing_v2,2021.1.2,Win32,60.05645307
space,1.496315,space,1.613215,,,ms_large,0,141,141,141,1,0.953,0.1,False,None,Z12,r2,2021-05-07_12h06.34.461,subsecond_timing_v2,2021.1.2,Win32,60.05645307
space,0.660445,space,1.443115,,,ms_large,0,142,142,142,1,1.165,0.2,False,None,Z12,r2,2021-05-07_12h06.34.461,subsecond_timing_v2,2021.1.2,Win32,60.05645307
space,0.8478,space,1.016295,,,ms_large,0,143,143,143,1,1.059,0.3,False,None,Z12,r2,2021-05-07_12h06.34.461,subsecond_timing_v2,2021.1.2,Win32,60.05645307
space,0.847025,space,1.509285,,,ms_large,0,144,144,144,1,1.2,0.1,False,None,Z12,r2,2021-05-07_12h06.34.461,subsecond_timing_v2,2021.1.2,Win32,60.05645307
space,1.43043,space,1.432705,,,ms_large,0,145,145,145,1,1.094,0.2,False,None,Z12,r2,2021-05-07_12h06.34.461,subsecond_timing_v2,2021.1.2,Win32,60.05645307
space,0.598325,space,1.5691,,,ms_large,0,146,146,146,1,1.024,0.3,False,None,Z12,r2,2021-05-07_12h06.34.461,subsecond_timing_v2,2021.1.2,Win32,60.05645307
space,1.149785,space,1.002685,,,ms_large,0,147,147,147,1,0.918,0.2,False,None,Z12,r2,2021-05-07_12h06.34.461,subsecond_timing_v2,2021.1.2,Win32,60.05645307
space,0.92491,space,1.42592,,,ms_large,0,148,148,148,1,1.129,0.3,False,None,Z12,r2,2021-05-07_12h06.34.461,subsecond_timing_v2,2021.1.2,Win32,60.05645307
space,0.900015,space,1.841775,,,ms_large,0,149,149,149,1,1.165,0.3,False,None,Z12,r2,2021-05-07_12h06.34.461,subsecond_timing_v2,2021.1.2,Win32,60.05645307
space,0.97837,space,1.435995,,,ms_large,0,150,150,150,1,0.882,0.1,False,None,Z12,r2,2021-05-07_12h06.34.461,subsecond_timing_v2,2021.1.2,Win32,60.05645307
space,1.49803,space,1.416485,,,ms_large,0,151,151,151,1,1.2,0.2,False,None,Z12,r2,2021-05-07_12h06.34.461,subsecond_timing_v2,2021.1.2,Win32,60.05645307
space,0.852965,space,0.936065,,,ms_large,0,152,152,152,1,0.953,0.3,False,None,Z12,r2,2021-05-07_12h06.34.461,subsecond_timing_v2,2021.1.2,Win32,60.05645307
space,0.68896,space,1.28592,,,ms_large,0,153,153,153,1,1.059,0.3,False,None,Z12,r2,2021-05-07_12h06.34.461,subsecond_timing_v2,2021.1.2,Win32,60.05645307
space,0.92454,space,0.951545,,,ms_large,0,154,154,154,1,0.918,0.2,False,None,Z12,r2,2021-05-07_12h06.34.461,subsecond_timing_v2,2021.1.2,Win32,60.05645307
space,0.747645,space,0.81711,,,ms_large,0,155,155,155,1,0.847,0.2,False,None,Z12,r2,2021-05-07_12h06.34.461,subsecond_timing_v2,2021.1.2,Win32,60.05645307
space,0.763915,space,1.238645,,,ms_large,0,156,156,156,1,1.129,0.3,False,None,Z12,r2,2021-05-07_12h06.34.461,subsecond_timing_v2,2021.1.2,Win32,60.05645307
space,0.64821,space,1.33572,,,ms_large,0,157,157,157,1,1.024,0.1,False,None,Z12,r2,2021-05-07_12h06.34.461,subsecond_timing_v2,2021.1.2,Win32,60.05645307
space,0.698525,space,1.59602,,,ms_large,0,158,158,158,1,0.988,0.2,False,None,Z12,r2,2021-05-07_12h06.34.461,subsecond_timing_v2,2021.1.2,Win32,60.05645307
space,0.599025,space,1.410975,,,ms_large,0,159,159,159,1,1.094,0.2,False,None,Z12,r2,2021-05-07_12h06.34.461,subsecond_timing_v2,2021.1.2,Win32,60.05645307
space,0.58319,space,1.260525,,,ms_large,0,160,160,160,1,1.129,0.2,False,None,Z12,r2,2021-05-07_12h06.34.461,subsecond_timing_v2,2021.1.2,Win32,60.05645307
space,0.68239,space,0.995825,,,ms_large,0,161,161,161,1,0.953,0.2,False,None,Z12,r2,2021-05-07_12h06.34.461,subsecond_timing_v2,2021.1.2,Win32,60.05645307
space,0.83525,space,1.05328,,,ms_large,0,162,162,162,1,0.847,0.3,False,None,Z12,r2,2021-05-07_12h06.34.461,subsecond_timing_v2,2021.1.2,Win32,60.05645307
space,0.782235,space,1.232635,,,ms_large,0,163,163,163,1,0.988,0.1,False,None,Z12,r2,2021-05-07_12h06.34.461,subsecond_timing_v2,2021.1.2,Win32,60.05645307
space,0.89668,space,0.844935,,,ms_large,0,164,164,164,1,0.882,0.1,False,None,Z12,r2,2021-05-07_12h06.34.461,subsecond_timing_v2,2021.1.2,Win32,60.05645307
space,0.797595,space,1.30128,,,ms_large,0,165,165,165,1,1.094,0.1,False,None,Z12,r2,2021-05-07_12h06.34.461,subsecond_timing_v2,2021.1.2,Win32,60.05645307
space,1.01605,space,1.403425,,,ms_large,0,166,166,166,1,0.918,0.2,False,None,Z12,r2,2021-05-07_12h06.34.461,subsecond_timing_v2,2021.1.2,Win32,60.05645307
space,0.599715,space,1.55129,,,ms_large,0,167,167,167,1,1.024,0.3,False,None,Z12,r2,2021-05-07_12h06.34.461,subsecond_timing_v2,2021.1.2,Win32,60.05645307
space,0.51946,space,1.383055,,,ms_large,0,168,168,168,1,1.059,0.1,False,None,Z12,r2,2021-05-07_12h06.34.461,subsecond_timing_v2,2021.1.2,Win32,60.05645307
space,0.95438,space,1.742785,,,ms_large,0,169,169,169,1,1.2,0.3,False,None,Z12,r2,2021-05-07_12h06.34.461,subsecond_timing_v2,2021.1.2,Win32,60.05645307
space,0.79717,space,1.774075,,,ms_large,0,170,170,170,1,1.165,0.3,False,None,Z12,r2,2021-05-07_12h06.34.461,subsecond_timing_v2,2021.1.2,Win32,60.05645307
space,0.904145,space,1.92787,,,ms_large,0,171,171,171,1,1.094,0.1,False,None,Z12,r2,2021-05-07_12h06.34.461,subsecond_timing_v2,2021.1.2,Win32,60.05645307
space,0.81993,space,1.916885,,,ms_large,0,172,172,172,1,1.024,0.1,False,None,Z12,r2,2021-05-07_12h06.34.461,subsecond_timing_v2,2021.1.2,Win32,60.05645307
space,1.411545,space,2.818815,,,ms_large,0,173,173,173,1,0.988,0.2,False,None,Z12,r2,2021-05-07_12h06.34.461,subsecond_timing_v2,2021.1.2,Win32,60.05645307
space,1.012555,space,1.454,,,ms_large,0,174,174,174,1,1.165,0.3,False,None,Z12,r2,2021-05-07_12h06.34.461,subsecond_timing_v2,2021.1.2,Win32,60.05645307
space,0.851655,space,1.1006,,,ms_large,0,175,175,175,1,0.847,0.1,False,None,Z12,r2,2021-05-07_12h06.34.461,subsecond_timing_v2,2021.1.2,Win32,60.05645307
space,0.555065,space,1.413715,,,ms_large,0,176,176,176,1,1.2,0.1,False,None,Z12,r2,2021-05-07_12h06.34.461,subsecond_timing_v2,2021.1.2,Win32,60.05645307
space,0.664725,space,1.03314,,,ms_large,0,177,177,177,1,0.882,0.1,False,None,Z12,r2,2021-05-07_12h06.34.461,subsecond_timing_v2,2021.1.2,Win32,60.05645307
space,0.730845,space,1.59934,,,ms_large,0,178,178,178,1,1.129,0.1,False,None,Z12,r2,2021-05-07_12h06.34.461,subsecond_timing_v2,2021.1.2,Win32,60.05645307
space,0.99747,space,1.63625,,,ms_large,0,179,179,179,1,0.953,0.1,False,None,Z12,r2,2021-05-07_12h06.34.461,subsecond_timing_v2,2021.1.2,Win32,60.05645307
space,0.9142,space,1.44939,,,ms_large,0,180,180,180,1,0.918,0.3,False,None,Z12,r2,2021-05-07_12h06.34.461,subsecond_timing_v2,2021.1.2,Win32,60.05645307
space,0.84729,space,1.55931,,,ms_large,0,181,181,181,1,1.059,0.2,False,None,Z12,r2,2021-05-07_12h06.34.461,subsecond_timing_v2,2021.1.2,Win32,60.05645307
space,1.02822,space,1.953425,,,ms_large,0,182,182,182,1,1.165,0.1,False,None,Z12,r2,2021-05-07_12h06.34.461,subsecond_timing_v2,2021.1.2,Win32,60.05645307
space,0.78476,space,1.53623,,,ms_large,0,183,183,183,1,1.024,0.3,False,None,Z12,r2,2021-05-07_12h06.34.461,subsecond_timing_v2,2021.1.2,Win32,60.05645307
space,0.883905,space,2.17618,,,ms_large,0,184,184,184,1,1.2,0.2,False,None,Z12,r2,2021-05-07_12h06.34.461,subsecond_timing_v2,2021.1.2,Win32,60.05645307
space,0.863815,space,1.992355,,,ms_large,0,185,185,185,1,0.882,0.3,False,None,Z12,r2,2021-05-07_12h06.34.461,subsecond_timing_v2,2021.1.2,Win32,60.05645307
space,0.913295,space,1.64678,,,ms_large,0,186,186,186,1,1.129,0.3,False,None,Z12,r2,2021-05-07_12h06.34.461,subsecond_timing_v2,2021.1.2,Win32,60.05645307
space,0.700805,space,1.77439,,,ms_large,0,187,187,187,1,0.953,0.1,False,None,Z12,r2,2021-05-07_12h06.34.461,subsecond_timing_v2,2021.1.2,Win32,60.05645307
space,0.682205,space,1.49303,,,ms_large,0,188,188,188,1,0.988,0.1,False,None,Z12,r2,2021-05-07_12h06.34.461,subsecond_timing_v2,2021.1.2,Win32,60.05645307
space,0.79804,space,1.59817,,,ms_large,0,189,189,189,1,0.918,0.3,False,None,Z12,r2,2021-05-07_12h06.34.461,subsecond_timing_v2,2021.1.2,Win32,60.05645307
space,0.813645,space,1.647895,,,ms_large,0,190,190,190,1,1.059,0.2,False,None,Z12,r2,2021-05-07_12h06.34.461,subsecond_timing_v2,2021.1.2,Win32,60.05645307
space,1.048915,space,1.558935,,,ms_large,0,191,191,191,1,0.847,0.3,False,None,Z12,r2,2021-05-07_12h06.34.461,subsecond_timing_v2,2021.1.2,Win32,60.05645307
space,0.52199,space,1.741325,,,ms_large,0,192,192,192,1,1.094,0.3,False,None,Z12,r2,2021-05-07_12h06.34.461,subsecond_timing_v2,2021.1.2,Win32,60.05645307
space,0.798065,space,1.177285,,,ms_large,0,193,193,193,1,0.847,0.1,False,None,Z12,r2,2021-05-07_12h06.34.461,subsecond_timing_v2,2021.1.2,Win32,60.05645307
space,0.79098,space,1.74095,,,ms_large,0,194,194,194,1,1.2,0.2,False,None,Z12,r2,2021-05-07_12h06.34.461,subsecond_timing_v2,2021.1.2,Win32,60.05645307
space,0.83552,space,1.834785,,,ms_large,0,195,195,195,1,0.918,0.3,False,None,Z12,r2,2021-05-07_12h06.34.461,subsecond_timing_v2,2021.1.2,Win32,60.05645307
space,0.91374,space,1.926655,,,ms_large,0,196,196,196,1,1.024,0.2,False,None,Z12,r2,2021-05-07_12h06.34.461,subsecond_timing_v2,2021.1.2,Win32,60.05645307
space,0.859105,space,2.00691,,,ms_large,0,197,197,197,1,1.094,0.1,False,None,Z12,r2,2021-05-07_12h06.34.461,subsecond_timing_v2,2021.1.2,Win32,60.05645307
space,0.93833,space,2.01677,,,ms_large,0,198,198,198,1,0.953,0.1,False,None,Z12,r2,2021-05-07_12h06.34.461,subsecond_timing_v2,2021.1.2,Win32,60.05645307
space,0.51698,space,1.64264,,,ms_large,0,199,199,199,1,1.129,0.3,False,None,Z12,r2,2021-05-07_12h06.34.461,subsecond_timing_v2,2021.1.2,Win32,60.05645307
space,0.82203,space,1.293715,,,ms_large,0,200,200,200,1,0.988,0.1,False,None,Z12,r2,2021-05-07_12h06.34.461,subsecond_timing_v2,2021.1.2,Win32,60.05645307
space,0.731285,space,1.40939,,,ms_large,0,201,201,201,1,0.882,0.3,False,None,Z12,r2,2021-05-07_12h06.34.461,subsecond_timing_v2,2021.1.2,Win32,60.05645307
space,0.56816,space,1.468565,,,ms_large,0,202,202,202,1,1.059,0.3,False,None,Z12,r2,2021-05-07_12h06.34.461,subsecond_timing_v2,2021.1.2,Win32,60.05645307
space,0.784425,space,1.773935,,,ms_large,0,203,203,203,1,1.165,0.2,False,None,Z12,r2,2021-05-07_12h06.34.461,subsecond_timing_v2,2021.1.2,Win32,60.05645307
space,0.90234,space,2.81937,,,ms_large,0,204,204,204,1,0.953,0.2,False,None,Z12,r2,2021-05-07_12h06.34.461,subsecond_timing_v2,2021.1.2,Win32,60.05645307
space,0.717705,space,2.149505,,,ms_large,0,205,205,205,1,1.094,0.3,False,None,Z12,r2,2021-05-07_12h06.34.461,subsecond_timing_v2,2021.1.2,Win32,60.05645307
space,0.825235,space,1.696355,,,ms_large,0,206,206,206,1,1.2,0.2,False,None,Z12,r2,2021-05-07_12h06.34.461,subsecond_timing_v2,2021.1.2,Win32,60.05645307
space,0.64984,space,1.77642,,,ms_large,0,207,207,207,1,1.024,0.1,False,None,Z12,r2,2021-05-07_12h06.34.461,subsecond_timing_v2,2021.1.2,Win32,60.05645307
space,0.740055,space,1.498715,,,ms_large,0,208,208,208,1,0.847,0.3,False,None,Z12,r2,2021-05-07_12h06.34.461,subsecond_timing_v2,2021.1.2,Win32,60.05645307
space,0.700235,space,2.175225,,,ms_large,0,209,209,209,1,1.129,0.2,False,None,Z12,r2,2021-05-07_12h06.34.461,subsecond_timing_v2,2021.1.2,Win32,60.05645307
space,0.553575,space,2.01723,,,ms_large,0,210,210,210,1,1.165,0.3,False,None,Z12,r2,2021-05-07_12h06.34.461,subsecond_timing_v2,2021.1.2,Win32,60.05645307
space,0.717935,space,1.44384,,,ms_large,0,211,211,211,1,0.988,0.3,False,None,Z12,r2,2021-05-07_12h06.34.461,subsecond_timing_v2,2021.1.2,Win32,60.05645307
space,0.691455,space,0.86184,,,ms_large,0,212,212,212,1,0.882,0.3,False,None,Z12,r2,2021-05-07_12h06.34.461,subsecond_timing_v2,2021.1.2,Win32,60.05645307
space,0.617485,space,1.161655,,,ms_large,0,213,213,213,1,1.059,0.2,False,None,Z12,r2,2021-05-07_12h06.34.461,subsecond_timing_v2,2021.1.2,Win32,60.05645307
space,0.66543,space,1.32998,,,ms_large,0,214,214,214,1,0.918,0.3,False,None,Z12,r2,2021-05-07_12h06.34.461,subsecond_timing_v2,2021.1.2,Win32,60.05645307
space,1.081925,space,1.72856,,,ms_large,0,215,215,215,1,0.953,0.2,False,None,Z12,r2,2021-05-07_12h06.34.461,subsecond_timing_v2,2021.1.2,Win32,60.05645307
space,0.635945,space,1.578405,,,ms_large,0,216,216,216,1,0.847,0.3,False,None,Z12,r2,2021-05-07_12h06.34.461,subsecond_timing_v2,2021.1.2,Win32,60.05645307
space,0.73219,space,1.515285,,,ms_large,0,217,217,217,1,1.024,0.1,False,None,Z12,r2,2021-05-07_12h06.34.461,subsecond_timing_v2,2021.1.2,Win32,60.05645307
space,0.768275,space,0.86284,,,ms_large,0,218,218,218,1,1.059,0.3,False,None,Z12,r2,2021-05-07_12h06.34.461,subsecond_timing_v2,2021.1.2,Win32,60.05645307
space,0.515785,space,0.94501,,,ms_large,0,219,219,219,1,0.988,0.1,False,None,Z12,r2,2021-05-07_12h06.34.461,subsecond_timing_v2,2021.1.2,Win32,60.05645307
space,0.528095,space,1.027795,,,ms_large,0,220,220,220,1,1.094,0.1,False,None,Z12,r2,2021-05-07_12h06.34.461,subsecond_timing_v2,2021.1.2,Win32,60.05645307
space,0.641575,space,1.44295,,,ms_large,0,221,221,221,1,0.918,0.3,False,None,Z12,r2,2021-05-07_12h06.34.461,subsecond_timing_v2,2021.1.2,Win32,60.05645307
space,0.98063,space,1.17732,,,ms_large,0,222,222,222,1,0.882,0.1,False,None,Z12,r2,2021-05-07_12h06.34.461,subsecond_timing_v2,2021.1.2,Win32,60.05645307
space,0.81411,space,1.41651,,,ms_large,0,223,223,223,1,1.129,0.2,False,None,Z12,r2,2021-05-07_12h06.34.461,subsecond_timing_v2,2021.1.2,Win32,60.05645307
space,0.521515,space,1.74566,,,ms_large,0,224,224,224,1,1.165,0.3,False,None,Z12,r2,2021-05-07_12h06.34.461,subsecond_timing_v2,2021.1.2,Win32,60.05645307
space,0.81473,space,1.95058,,,ms_large,0,225,225,225,1,1.2,0.3,False,None,Z12,r2,2021-05-07_12h06.34.461,subsecond_timing_v2,2021.1.2,Win32,60.05645307
