key_resp_start.keys,key_resp_start.rt,key_resp_stop.keys,key_resp_stop.rt,feedback_range,hit,stimulus_range,trials.thisRepN,trials.thisTrialN,trials.thisN,trials.thisIndex,trials.ran,stimulus_duration,onset,feedback,feedback_range_fromfile,participant,session,date,expName,psychopyVersion,OS,frameRate
space,9.219,space,0.694,0.3,FALSE,Training,0,0,0,0,1,1,0.2,True,0.3,D04,r2,2021-04-29_14h06.49.569,subsecond_timing_v2,2021.1.2,MacIntel,55.55555556
space,1.248,space,0.472,0.3,FALSE,Training,0,1,1,1,1,0.75,0.2,True,0.3,D04,r2,2021-04-29_14h06.49.569,subsecond_timing_v2,2021.1.2,MacIntel,55.55555556
space,0.789,space,0.398,0.3,TRUE,Training,0,2,2,2,1,0.5,0.2,True,0.3,D04,r2,2021-04-29_14h06.49.569,subsecond_timing_v2,2021.1.2,MacIntel,55.55555556
space,0.735,space,0.355,0.3,TRUE,Training,0,3,3,3,1,0.5,0.3,True,0.3,D04,r2,2021-04-29_14h06.49.569,subsecond_timing_v2,2021.1.2,MacIntel,55.55555556
space,0.695,space,0.516,0.3,FALSE,Training,0,4,4,4,1,0.75,0.3,True,0.3,D04,r2,2021-04-29_14h06.49.569,subsecond_timing_v2,2021.1.2,MacIntel,55.55555556
space,0.807,space,0.777,0.3,TRUE,Training,0,5,5,5,1,1,0.3,True,0.3,D04,r2,2021-04-29_14h06.49.569,subsecond_timing_v2,2021.1.2,MacIntel,55.55555556
space,1.326,space,0.99,,,ms_large,0,6,6,6,1,1.165,0.2,False,None,D04,r2,2021-04-29_14h06.49.569,subsecond_timing_v2,2021.1.2,MacIntel,55.55555556
space,0.835,space,0.624,,,ms_large,0,7,7,7,1,1.094,0.3,False,None,D04,r2,2021-04-29_14h06.49.569,subsecond_timing_v2,2021.1.2,MacIntel,55.55555556
space,1.084,space,0.87,,,ms_large,0,8,8,8,1,1.2,0.3,False,None,D04,r2,2021-04-29_14h06.49.569,subsecond_timing_v2,2021.1.2,MacIntel,55.55555556
space,0.815,space,0.954,,,ms_large,0,9,9,9,1,1.024,0.1,False,None,D04,r2,2021-04-29_14h06.49.569,subsecond_timing_v2,2021.1.2,MacIntel,55.55555556
space,0.941,space,0.737,,,ms_large,0,10,10,10,1,0.953,0.3,False,None,D04,r2,2021-04-29_14h06.49.569,subsecond_timing_v2,2021.1.2,MacIntel,55.55555556
space,0.844,space,0.726,,,ms_large,0,11,11,11,1,0.847,0.1,False,None,D04,r2,2021-04-29_14h06.49.569,subsecond_timing_v2,2021.1.2,MacIntel,55.55555556
space,0.886,space,0.968,,,ms_large,0,12,12,12,1,0.882,0.3,False,None,D04,r2,2021-04-29_14h06.49.569,subsecond_timing_v2,2021.1.2,MacIntel,55.55555556
space,0.634,space,0.912,,,ms_large,0,13,13,13,1,1.129,0.1,False,None,D04,r2,2021-04-29_14h06.49.569,subsecond_timing_v2,2021.1.2,MacIntel,55.55555556
space,0.852,space,0.948,,,ms_large,0,14,14,14,1,1.059,0.3,False,None,D04,r2,2021-04-29_14h06.49.569,subsecond_timing_v2,2021.1.2,MacIntel,55.55555556
space,0.883,space,0.84,,,ms_large,0,15,15,15,1,0.918,0.3,False,None,D04,r2,2021-04-29_14h06.49.569,subsecond_timing_v2,2021.1.2,MacIntel,55.55555556
space,0.919,space,0.857,,,ms_large,0,16,16,16,1,0.988,0.1,False,None,D04,r2,2021-04-29_14h06.49.569,subsecond_timing_v2,2021.1.2,MacIntel,55.55555556
space,0.559,space,0.704,,,ms_large,0,17,17,17,1,0.953,0.2,False,None,D04,r2,2021-04-29_14h06.49.569,subsecond_timing_v2,2021.1.2,MacIntel,55.55555556
space,1.421,space,0.9,,,ms_large,0,18,18,18,1,1.129,0.3,False,None,D04,r2,2021-04-29_14h06.49.569,subsecond_timing_v2,2021.1.2,MacIntel,55.55555556
space,2.09,space,0.821,,,ms_large,0,19,19,19,1,0.988,0.2,False,None,D04,r2,2021-04-29_14h06.49.569,subsecond_timing_v2,2021.1.2,MacIntel,55.55555556
space,1.398,space,0.836,,,ms_large,0,20,20,20,1,1.024,0.1,False,None,D04,r2,2021-04-29_14h06.49.569,subsecond_timing_v2,2021.1.2,MacIntel,55.55555556
space,1.27,space,0.781,,,ms_large,0,21,21,21,1,1.165,0.1,False,None,D04,r2,2021-04-29_14h06.49.569,subsecond_timing_v2,2021.1.2,MacIntel,55.55555556
space,0.88,space,0.857,,,ms_large,0,22,22,22,1,1.2,0.1,False,None,D04,r2,2021-04-29_14h06.49.569,subsecond_timing_v2,2021.1.2,MacIntel,55.55555556
space,2.091,space,0.67,,,ms_large,0,23,23,23,1,0.882,0.2,False,None,D04,r2,2021-04-29_14h06.49.569,subsecond_timing_v2,2021.1.2,MacIntel,55.55555556
space,1.401,space,0.733,,,ms_large,0,24,24,24,1,0.847,0.3,False,None,D04,r2,2021-04-29_14h06.49.569,subsecond_timing_v2,2021.1.2,MacIntel,55.55555556
space,1.553,space,0.821,,,ms_large,0,25,25,25,1,1.094,0.1,False,None,D04,r2,2021-04-29_14h06.49.569,subsecond_timing_v2,2021.1.2,MacIntel,55.55555556
space,0.967,space,0.746,,,ms_large,0,26,26,26,1,1.059,0.1,False,None,D04,r2,2021-04-29_14h06.49.569,subsecond_timing_v2,2021.1.2,MacIntel,55.55555556
space,1.707,space,0.664,,,ms_large,0,27,27,27,1,0.918,0.3,False,None,D04,r2,2021-04-29_14h06.49.569,subsecond_timing_v2,2021.1.2,MacIntel,55.55555556
space,0.452,space,0.347,,,ms_large,0,28,28,28,1,0.988,0.2,False,None,D04,r2,2021-04-29_14h06.49.569,subsecond_timing_v2,2021.1.2,MacIntel,55.55555556
space,0.946,space,1.26,,,ms_large,0,29,29,29,1,1.165,0.2,False,None,D04,r2,2021-04-29_14h06.49.569,subsecond_timing_v2,2021.1.2,MacIntel,55.55555556
space,1.667,space,0.78,,,ms_large,0,30,30,30,1,1.129,0.1,False,None,D04,r2,2021-04-29_14h06.49.569,subsecond_timing_v2,2021.1.2,MacIntel,55.55555556
space,1.005,space,0.805,,,ms_large,0,31,31,31,1,1.059,0.1,False,None,D04,r2,2021-04-29_14h06.49.569,subsecond_timing_v2,2021.1.2,MacIntel,55.55555556
space,1.353,space,0.891,,,ms_large,0,32,32,32,1,0.918,0.3,False,None,D04,r2,2021-04-29_14h06.49.569,subsecond_timing_v2,2021.1.2,MacIntel,55.55555556
space,1.062,space,0.973,,,ms_large,0,33,33,33,1,1.2,0.3,False,None,D04,r2,2021-04-29_14h06.49.569,subsecond_timing_v2,2021.1.2,MacIntel,55.55555556
space,1.34,space,0.658,,,ms_large,0,34,34,34,1,0.847,0.1,False,None,D04,r2,2021-04-29_14h06.49.569,subsecond_timing_v2,2021.1.2,MacIntel,55.55555556
space,1.136,space,0.846,,,ms_large,0,35,35,35,1,1.024,0.1,False,None,D04,r2,2021-04-29_14h06.49.569,subsecond_timing_v2,2021.1.2,MacIntel,55.55555556
space,0.398,space,0.552,,,ms_large,0,36,36,36,1,0.882,0.1,False,None,D04,r2,2021-04-29_14h06.49.569,subsecond_timing_v2,2021.1.2,MacIntel,55.55555556
space,1.049,space,0.669,,,ms_large,0,37,37,37,1,1.094,0.2,False,None,D04,r2,2021-04-29_14h06.49.569,subsecond_timing_v2,2021.1.2,MacIntel,55.55555556
space,0.935,space,0.975,,,ms_large,0,38,38,38,1,0.953,0.1,False,None,D04,r2,2021-04-29_14h06.49.569,subsecond_timing_v2,2021.1.2,MacIntel,55.55555556
space,1.205,space,0.908,,,ms_large,0,39,39,39,1,1.165,0.2,False,None,D04,r2,2021-04-29_14h06.49.569,subsecond_timing_v2,2021.1.2,MacIntel,55.55555556
space,0.536,space,0.898,,,ms_large,0,40,40,40,1,0.953,0.1,False,None,D04,r2,2021-04-29_14h06.49.569,subsecond_timing_v2,2021.1.2,MacIntel,55.55555556
space,0.961,space,0.969,,,ms_large,0,41,41,41,1,0.988,0.1,False,None,D04,r2,2021-04-29_14h06.49.569,subsecond_timing_v2,2021.1.2,MacIntel,55.55555556
space,0.706,space,0.82,,,ms_large,0,42,42,42,1,1.094,0.1,False,None,D04,r2,2021-04-29_14h06.49.569,subsecond_timing_v2,2021.1.2,MacIntel,55.55555556
space,0.938,space,0.802,,,ms_large,0,43,43,43,1,1.129,0.3,False,None,D04,r2,2021-04-29_14h06.49.569,subsecond_timing_v2,2021.1.2,MacIntel,55.55555556
space,1.108,space,0.706,,,ms_large,0,44,44,44,1,0.882,0.2,False,None,D04,r2,2021-04-29_14h06.49.569,subsecond_timing_v2,2021.1.2,MacIntel,55.55555556
space,1.125,space,0.932,,,ms_large,0,45,45,45,1,1.2,0.1,False,None,D04,r2,2021-04-29_14h06.49.569,subsecond_timing_v2,2021.1.2,MacIntel,55.55555556
space,1.22,space,0.834,,,ms_large,0,46,46,46,1,1.024,0.1,False,None,D04,r2,2021-04-29_14h06.49.569,subsecond_timing_v2,2021.1.2,MacIntel,55.55555556
space,1.097,space,0.659,,,ms_large,0,47,47,47,1,0.918,0.2,False,None,D04,r2,2021-04-29_14h06.49.569,subsecond_timing_v2,2021.1.2,MacIntel,55.55555556
space,0.956,space,0.925,,,ms_large,0,48,48,48,1,0.847,0.1,False,None,D04,r2,2021-04-29_14h06.49.569,subsecond_timing_v2,2021.1.2,MacIntel,55.55555556
space,1.141,space,0.761,,,ms_large,0,49,49,49,1,1.059,0.3,False,None,D04,r2,2021-04-29_14h06.49.569,subsecond_timing_v2,2021.1.2,MacIntel,55.55555556
space,1.019,space,0.824,,,ms_large,0,50,50,50,1,0.953,0.2,False,None,D04,r2,2021-04-29_14h06.49.569,subsecond_timing_v2,2021.1.2,MacIntel,55.55555556
space,1.086,space,0.983,,,ms_large,0,51,51,51,1,1.024,0.3,False,None,D04,r2,2021-04-29_14h06.49.569,subsecond_timing_v2,2021.1.2,MacIntel,55.55555556
space,0.957,space,1.345,,,ms_large,0,52,52,52,1,1.165,0.3,False,None,D04,r2,2021-04-29_14h06.49.569,subsecond_timing_v2,2021.1.2,MacIntel,55.55555556
space,0.802,space,0.761,,,ms_large,0,53,53,53,1,0.847,0.3,False,None,D04,r2,2021-04-29_14h06.49.569,subsecond_timing_v2,2021.1.2,MacIntel,55.55555556
space,0.905,space,1.042,,,ms_large,0,54,54,54,1,1.2,0.1,False,None,D04,r2,2021-04-29_14h06.49.569,subsecond_timing_v2,2021.1.2,MacIntel,55.55555556
space,1.277,space,1.095,,,ms_large,0,55,55,55,1,0.988,0.3,False,None,D04,r2,2021-04-29_14h06.49.569,subsecond_timing_v2,2021.1.2,MacIntel,55.55555556
space,1.592,space,0.887,,,ms_large,0,56,56,56,1,0.882,0.1,False,None,D04,r2,2021-04-29_14h06.49.569,subsecond_timing_v2,2021.1.2,MacIntel,55.55555556
space,0.898,space,0.906,,,ms_large,0,57,57,57,1,1.059,0.1,False,None,D04,r2,2021-04-29_14h06.49.569,subsecond_timing_v2,2021.1.2,MacIntel,55.55555556
space,0.611,space,1.108,,,ms_large,0,58,58,58,1,1.094,0.1,False,None,D04,r2,2021-04-29_14h06.49.569,subsecond_timing_v2,2021.1.2,MacIntel,55.55555556
space,1.129,space,1.027,,,ms_large,0,59,59,59,1,1.129,0.3,False,None,D04,r2,2021-04-29_14h06.49.569,subsecond_timing_v2,2021.1.2,MacIntel,55.55555556
space,1.039,space,0.784,,,ms_large,0,60,60,60,1,0.918,0.3,False,None,D04,r2,2021-04-29_14h06.49.569,subsecond_timing_v2,2021.1.2,MacIntel,55.55555556
space,1.136,space,1.024,,,ms_large,0,61,61,61,1,1.129,0.1,False,None,D04,r2,2021-04-29_14h06.49.569,subsecond_timing_v2,2021.1.2,MacIntel,55.55555556
space,0.267,space,0.946,,,ms_large,0,62,62,62,1,1.165,0.3,False,None,D04,r2,2021-04-29_14h06.49.569,subsecond_timing_v2,2021.1.2,MacIntel,55.55555556
space,1.019,space,0.89,,,ms_large,0,63,63,63,1,0.953,0.2,False,None,D04,r2,2021-04-29_14h06.49.569,subsecond_timing_v2,2021.1.2,MacIntel,55.55555556
space,0.335,space,1.015,,,ms_large,0,64,64,64,1,1.094,0.2,False,None,D04,r2,2021-04-29_14h06.49.569,subsecond_timing_v2,2021.1.2,MacIntel,55.55555556
space,1.11,space,0.821,,,ms_large,0,65,65,65,1,0.882,0.1,False,None,D04,r2,2021-04-29_14h06.49.569,subsecond_timing_v2,2021.1.2,MacIntel,55.55555556
space,0.485,space,1.333,,,ms_large,0,66,66,66,1,0.918,0.2,False,None,D04,r2,2021-04-29_14h06.49.569,subsecond_timing_v2,2021.1.2,MacIntel,55.55555556
space,1.475,space,1.088,,,ms_large,0,67,67,67,1,0.988,0.1,False,None,D04,r2,2021-04-29_14h06.49.569,subsecond_timing_v2,2021.1.2,MacIntel,55.55555556
space,0.868,space,0.917,,,ms_large,0,68,68,68,1,1.024,0.1,False,None,D04,r2,2021-04-29_14h06.49.569,subsecond_timing_v2,2021.1.2,MacIntel,55.55555556
space,0.883,space,1.002,,,ms_large,0,69,69,69,1,1.2,0.1,False,None,D04,r2,2021-04-29_14h06.49.569,subsecond_timing_v2,2021.1.2,MacIntel,55.55555556
space,0.886,space,1.121,,,ms_large,0,70,70,70,1,1.059,0.1,False,None,D04,r2,2021-04-29_14h06.49.569,subsecond_timing_v2,2021.1.2,MacIntel,55.55555556
space,0.953,space,0.751,,,ms_large,0,71,71,71,1,0.847,0.1,False,None,D04,r2,2021-04-29_14h06.49.569,subsecond_timing_v2,2021.1.2,MacIntel,55.55555556
space,0.847,space,0.885,,,ms_large,0,72,72,72,1,1.094,0.2,False,None,D04,r2,2021-04-29_14h06.49.569,subsecond_timing_v2,2021.1.2,MacIntel,55.55555556
space,0.955,space,0.824,,,ms_large,0,73,73,73,1,0.918,0.3,False,None,D04,r2,2021-04-29_14h06.49.569,subsecond_timing_v2,2021.1.2,MacIntel,55.55555556
space,0.944,space,0.78,,,ms_large,0,74,74,74,1,0.953,0.2,False,None,D04,r2,2021-04-29_14h06.49.569,subsecond_timing_v2,2021.1.2,MacIntel,55.55555556
space,1.302,space,0.904,,,ms_large,0,75,75,75,1,0.882,0.2,False,None,D04,r2,2021-04-29_14h06.49.569,subsecond_timing_v2,2021.1.2,MacIntel,55.55555556
space,1.048,space,1.075,,,ms_large,0,76,76,76,1,0.988,0.3,False,None,D04,r2,2021-04-29_14h06.49.569,subsecond_timing_v2,2021.1.2,MacIntel,55.55555556
space,1.105,space,0.902,,,ms_large,0,77,77,77,1,1.2,0.1,False,None,D04,r2,2021-04-29_14h06.49.569,subsecond_timing_v2,2021.1.2,MacIntel,55.55555556
space,1.4,space,0.917,,,ms_large,0,78,78,78,1,1.024,0.2,False,None,D04,r2,2021-04-29_14h06.49.569,subsecond_timing_v2,2021.1.2,MacIntel,55.55555556
space,1.067,space,0.996,,,ms_large,0,79,79,79,1,1.129,0.1,False,None,D04,r2,2021-04-29_14h06.49.569,subsecond_timing_v2,2021.1.2,MacIntel,55.55555556
space,0.931,space,1.011,,,ms_large,0,80,80,80,1,1.165,0.3,False,None,D04,r2,2021-04-29_14h06.49.569,subsecond_timing_v2,2021.1.2,MacIntel,55.55555556
space,0.872,space,1,,,ms_large,0,81,81,81,1,1.059,0.2,False,None,D04,r2,2021-04-29_14h06.49.569,subsecond_timing_v2,2021.1.2,MacIntel,55.55555556
space,0.985,space,0.775,,,ms_large,0,82,82,82,1,0.847,0.1,False,None,D04,r2,2021-04-29_14h06.49.569,subsecond_timing_v2,2021.1.2,MacIntel,55.55555556
space,0.913,space,0.887,,,ms_large,0,83,83,83,1,1.024,0.1,False,None,D04,r2,2021-04-29_14h06.49.569,subsecond_timing_v2,2021.1.2,MacIntel,55.55555556
space,0.853,space,0.933,,,ms_large,0,84,84,84,1,1.059,0.3,False,None,D04,r2,2021-04-29_14h06.49.569,subsecond_timing_v2,2021.1.2,MacIntel,55.55555556
space,0.936,space,0.801,,,ms_large,0,85,85,85,1,0.918,0.1,False,None,D04,r2,2021-04-29_14h06.49.569,subsecond_timing_v2,2021.1.2,MacIntel,55.55555556
space,0.838,space,1.055,,,ms_large,0,86,86,86,1,1.165,0.1,False,None,D04,r2,2021-04-29_14h06.49.569,subsecond_timing_v2,2021.1.2,MacIntel,55.55555556
space,0.982,space,0.845,,,ms_large,0,87,87,87,1,0.953,0.1,False,None,D04,r2,2021-04-29_14h06.49.569,subsecond_timing_v2,2021.1.2,MacIntel,55.55555556
space,0.94,space,0.79,,,ms_large,0,88,88,88,1,0.882,0.1,False,None,D04,r2,2021-04-29_14h06.49.569,subsecond_timing_v2,2021.1.2,MacIntel,55.55555556
space,0.951,space,0.773,,,ms_large,0,89,89,89,1,0.847,0.1,False,None,D04,r2,2021-04-29_14h06.49.569,subsecond_timing_v2,2021.1.2,MacIntel,55.55555556
space,0.979,space,1.164,,,ms_large,0,90,90,90,1,1.094,0.1,False,None,D04,r2,2021-04-29_14h06.49.569,subsecond_timing_v2,2021.1.2,MacIntel,55.55555556
space,0.846,space,1.023,,,ms_large,0,91,91,91,1,1.129,0.2,False,None,D04,r2,2021-04-29_14h06.49.569,subsecond_timing_v2,2021.1.2,MacIntel,55.55555556
space,0.909,space,0.934,,,ms_large,0,92,92,92,1,1.2,0.1,False,None,D04,r2,2021-04-29_14h06.49.569,subsecond_timing_v2,2021.1.2,MacIntel,55.55555556
space,1.182,space,0.846,,,ms_large,0,93,93,93,1,0.988,0.1,False,None,D04,r2,2021-04-29_14h06.49.569,subsecond_timing_v2,2021.1.2,MacIntel,55.55555556
space,0.065,space,2.104,,,ms_large,0,94,94,94,1,1.129,0.3,False,None,D04,r2,2021-04-29_14h06.49.569,subsecond_timing_v2,2021.1.2,MacIntel,55.55555556
space,0.862,space,0.934,,,ms_large,0,95,95,95,1,1.165,0.2,False,None,D04,r2,2021-04-29_14h06.49.569,subsecond_timing_v2,2021.1.2,MacIntel,55.55555556
space,0.902,space,0.736,,,ms_large,0,96,96,96,1,1.024,0.3,False,None,D04,r2,2021-04-29_14h06.49.569,subsecond_timing_v2,2021.1.2,MacIntel,55.55555556
space,1.074,space,0.873,,,ms_large,0,97,97,97,1,1.094,0.1,False,None,D04,r2,2021-04-29_14h06.49.569,subsecond_timing_v2,2021.1.2,MacIntel,55.55555556
space,0.923,space,0.895,,,ms_large,0,98,98,98,1,1.059,0.2,False,None,D04,r2,2021-04-29_14h06.49.569,subsecond_timing_v2,2021.1.2,MacIntel,55.55555556
space,0.946,space,1.068,,,ms_large,0,99,99,99,1,1.2,0.1,False,None,D04,r2,2021-04-29_14h06.49.569,subsecond_timing_v2,2021.1.2,MacIntel,55.55555556
space,1.187,space,0.754,,,ms_large,0,100,100,100,1,0.882,0.3,False,None,D04,r2,2021-04-29_14h06.49.569,subsecond_timing_v2,2021.1.2,MacIntel,55.55555556
space,0.855,space,0.794,,,ms_large,0,101,101,101,1,0.918,0.3,False,None,D04,r2,2021-04-29_14h06.49.569,subsecond_timing_v2,2021.1.2,MacIntel,55.55555556
space,1.087,space,0.978,,,ms_large,0,102,102,102,1,0.988,0.3,False,None,D04,r2,2021-04-29_14h06.49.569,subsecond_timing_v2,2021.1.2,MacIntel,55.55555556
space,1.133,space,1.002,,,ms_large,0,103,103,103,1,0.847,0.1,False,None,D04,r2,2021-04-29_14h06.49.569,subsecond_timing_v2,2021.1.2,MacIntel,55.55555556
space,0.953,space,1.043,,,ms_large,0,104,104,104,1,0.953,0.3,False,None,D04,r2,2021-04-29_14h06.49.569,subsecond_timing_v2,2021.1.2,MacIntel,55.55555556
space,0.98,space,0.794,,,ms_large,0,105,105,105,1,0.847,0.3,False,None,D04,r2,2021-04-29_14h06.49.569,subsecond_timing_v2,2021.1.2,MacIntel,55.55555556
space,0.896,space,0.857,,,ms_large,0,106,106,106,1,1.094,0.3,False,None,D04,r2,2021-04-29_14h06.49.569,subsecond_timing_v2,2021.1.2,MacIntel,55.55555556
space,1.323,space,0.977,,,ms_large,0,107,107,107,1,1.129,0.3,False,None,D04,r2,2021-04-29_14h06.49.569,subsecond_timing_v2,2021.1.2,MacIntel,55.55555556
space,1.086,space,0.806,,,ms_large,0,108,108,108,1,0.882,0.3,False,None,D04,r2,2021-04-29_14h06.49.569,subsecond_timing_v2,2021.1.2,MacIntel,55.55555556
space,1.039,space,1.065,,,ms_large,0,109,109,109,1,0.953,0.2,False,None,D04,r2,2021-04-29_14h06.49.569,subsecond_timing_v2,2021.1.2,MacIntel,55.55555556
space,1.029,space,0.908,,,ms_large,0,110,110,110,1,0.988,0.1,False,None,D04,r2,2021-04-29_14h06.49.569,subsecond_timing_v2,2021.1.2,MacIntel,55.55555556
space,0.876,space,1.065,,,ms_large,0,111,111,111,1,1.165,0.3,False,None,D04,r2,2021-04-29_14h06.49.569,subsecond_timing_v2,2021.1.2,MacIntel,55.55555556
space,1.815,space,0.752,,,ms_large,0,112,112,112,1,0.918,0.2,False,None,D04,r2,2021-04-29_14h06.49.569,subsecond_timing_v2,2021.1.2,MacIntel,55.55555556
space,0.892,space,0.975,,,ms_large,0,113,113,113,1,1.059,0.3,False,None,D04,r2,2021-04-29_14h06.49.569,subsecond_timing_v2,2021.1.2,MacIntel,55.55555556
space,0.891,space,1.126,,,ms_large,0,114,114,114,1,1.2,0.2,False,None,D04,r2,2021-04-29_14h06.49.569,subsecond_timing_v2,2021.1.2,MacIntel,55.55555556
space,1.153,space,1.156,,,ms_large,0,115,115,115,1,1.024,0.3,False,None,D04,r2,2021-04-29_14h06.49.569,subsecond_timing_v2,2021.1.2,MacIntel,55.55555556
space,0.959,space,0.979,,,ms_large,0,116,116,116,1,1.129,0.3,False,None,D04,r2,2021-04-29_14h06.49.569,subsecond_timing_v2,2021.1.2,MacIntel,55.55555556
space,0.943,space,1.071,,,ms_large,0,117,117,117,1,1.2,0.3,False,None,D04,r2,2021-04-29_14h06.49.569,subsecond_timing_v2,2021.1.2,MacIntel,55.55555556
space,1.049,space,0.996,,,ms_large,0,118,118,118,1,1.024,0.3,False,None,D04,r2,2021-04-29_14h06.49.569,subsecond_timing_v2,2021.1.2,MacIntel,55.55555556
space,1.116,space,1.067,,,ms_large,0,119,119,119,1,1.094,0.1,False,None,D04,r2,2021-04-29_14h06.49.569,subsecond_timing_v2,2021.1.2,MacIntel,55.55555556
space,0.07,space,1.179,,,ms_large,0,120,120,120,1,1.059,0.1,False,None,D04,r2,2021-04-29_14h06.49.569,subsecond_timing_v2,2021.1.2,MacIntel,55.55555556
space,1.049,space,0.983,,,ms_large,0,121,121,121,1,0.988,0.2,False,None,D04,r2,2021-04-29_14h06.49.569,subsecond_timing_v2,2021.1.2,MacIntel,55.55555556
space,1.104,space,0.833,,,ms_large,0,122,122,122,1,0.847,0.3,False,None,D04,r2,2021-04-29_14h06.49.569,subsecond_timing_v2,2021.1.2,MacIntel,55.55555556
space,1.025,space,0.841,,,ms_large,0,123,123,123,1,0.953,0.2,False,None,D04,r2,2021-04-29_14h06.49.569,subsecond_timing_v2,2021.1.2,MacIntel,55.55555556
space,0.936,space,0.789,,,ms_large,0,124,124,124,1,0.918,0.2,False,None,D04,r2,2021-04-29_14h06.49.569,subsecond_timing_v2,2021.1.2,MacIntel,55.55555556
space,0.828,space,1.01,,,ms_large,0,125,125,125,1,1.165,0.2,False,None,D04,r2,2021-04-29_14h06.49.569,subsecond_timing_v2,2021.1.2,MacIntel,55.55555556
space,0.882,space,0.983,,,ms_large,0,126,126,126,1,0.882,0.3,False,None,D04,r2,2021-04-29_14h06.49.569,subsecond_timing_v2,2021.1.2,MacIntel,55.55555556
space,1.083,space,1.438,,,ms_large,0,127,127,127,1,0.882,0.2,False,None,D04,r2,2021-04-29_14h06.49.569,subsecond_timing_v2,2021.1.2,MacIntel,55.55555556
space,0.905,space,1.252,,,ms_large,0,128,128,128,1,1.094,0.2,False,None,D04,r2,2021-04-29_14h06.49.569,subsecond_timing_v2,2021.1.2,MacIntel,55.55555556
space,0.836,space,1.256,,,ms_large,0,129,129,129,1,1.024,0.3,False,None,D04,r2,2021-04-29_14h06.49.569,subsecond_timing_v2,2021.1.2,MacIntel,55.55555556
space,1.021,space,0.768,,,ms_large,0,130,130,130,1,0.847,0.1,False,None,D04,r2,2021-04-29_14h06.49.569,subsecond_timing_v2,2021.1.2,MacIntel,55.55555556
space,0.752,space,1.008,,,ms_large,0,131,131,131,1,1.2,0.1,False,None,D04,r2,2021-04-29_14h06.49.569,subsecond_timing_v2,2021.1.2,MacIntel,55.55555556
space,0.832,space,0.939,,,ms_large,0,132,132,132,1,1.059,0.3,False,None,D04,r2,2021-04-29_14h06.49.569,subsecond_timing_v2,2021.1.2,MacIntel,55.55555556
space,0.841,space,1.058,,,ms_large,0,133,133,133,1,0.918,0.1,False,None,D04,r2,2021-04-29_14h06.49.569,subsecond_timing_v2,2021.1.2,MacIntel,55.55555556
space,0.974,space,0.954,,,ms_large,0,134,134,134,1,1.129,0.3,False,None,D04,r2,2021-04-29_14h06.49.569,subsecond_timing_v2,2021.1.2,MacIntel,55.55555556
space,0.827,space,1.026,,,ms_large,0,135,135,135,1,1.165,0.2,False,None,D04,r2,2021-04-29_14h06.49.569,subsecond_timing_v2,2021.1.2,MacIntel,55.55555556
space,1.027,space,1.01,,,ms_large,0,136,136,136,1,0.953,0.1,False,None,D04,r2,2021-04-29_14h06.49.569,subsecond_timing_v2,2021.1.2,MacIntel,55.55555556
space,0.86,space,0.937,,,ms_large,0,137,137,137,1,0.988,0.3,False,None,D04,r2,2021-04-29_14h06.49.569,subsecond_timing_v2,2021.1.2,MacIntel,55.55555556
space,0.979,space,0.842,,,ms_large,0,138,138,138,1,0.847,0.1,False,None,D04,r2,2021-04-29_14h06.49.569,subsecond_timing_v2,2021.1.2,MacIntel,55.55555556
space,0.811,space,0.817,,,ms_large,0,139,139,139,1,0.882,0.1,False,None,D04,r2,2021-04-29_14h06.49.569,subsecond_timing_v2,2021.1.2,MacIntel,55.55555556
space,0.755,space,1.031,,,ms_large,0,140,140,140,1,0.988,0.3,False,None,D04,r2,2021-04-29_14h06.49.569,subsecond_timing_v2,2021.1.2,MacIntel,55.55555556
space,0.879,space,0.974,,,ms_large,0,141,141,141,1,0.953,0.1,False,None,D04,r2,2021-04-29_14h06.49.569,subsecond_timing_v2,2021.1.2,MacIntel,55.55555556
space,0.797,space,1.16,,,ms_large,0,142,142,142,1,1.165,0.2,False,None,D04,r2,2021-04-29_14h06.49.569,subsecond_timing_v2,2021.1.2,MacIntel,55.55555556
space,0.798,space,1.075,,,ms_large,0,143,143,143,1,1.059,0.3,False,None,D04,r2,2021-04-29_14h06.49.569,subsecond_timing_v2,2021.1.2,MacIntel,55.55555556
space,0.433,space,0.963,,,ms_large,0,144,144,144,1,1.2,0.1,False,None,D04,r2,2021-04-29_14h06.49.569,subsecond_timing_v2,2021.1.2,MacIntel,55.55555556
space,0.92,space,1.017,,,ms_large,0,145,145,145,1,1.094,0.2,False,None,D04,r2,2021-04-29_14h06.49.569,subsecond_timing_v2,2021.1.2,MacIntel,55.55555556
space,1.041,space,1.013,,,ms_large,0,146,146,146,1,1.024,0.3,False,None,D04,r2,2021-04-29_14h06.49.569,subsecond_timing_v2,2021.1.2,MacIntel,55.55555556
space,1.048,space,1.021,,,ms_large,0,147,147,147,1,0.918,0.2,False,None,D04,r2,2021-04-29_14h06.49.569,subsecond_timing_v2,2021.1.2,MacIntel,55.55555556
space,0.917,space,1.059,,,ms_large,0,148,148,148,1,1.129,0.3,False,None,D04,r2,2021-04-29_14h06.49.569,subsecond_timing_v2,2021.1.2,MacIntel,55.55555556
space,1.617,space,0.799,,,ms_large,0,149,149,149,1,1.165,0.3,False,None,D04,r2,2021-04-29_14h06.49.569,subsecond_timing_v2,2021.1.2,MacIntel,55.55555556
space,0.898,space,0.751,,,ms_large,0,150,150,150,1,0.882,0.1,False,None,D04,r2,2021-04-29_14h06.49.569,subsecond_timing_v2,2021.1.2,MacIntel,55.55555556
space,0.918,space,0.959,,,ms_large,0,151,151,151,1,1.2,0.2,False,None,D04,r2,2021-04-29_14h06.49.569,subsecond_timing_v2,2021.1.2,MacIntel,55.55555556
space,1.004,space,1.004,,,ms_large,0,152,152,152,1,0.953,0.3,False,None,D04,r2,2021-04-29_14h06.49.569,subsecond_timing_v2,2021.1.2,MacIntel,55.55555556
space,0.94,space,1.052,,,ms_large,0,153,153,153,1,1.059,0.3,False,None,D04,r2,2021-04-29_14h06.49.569,subsecond_timing_v2,2021.1.2,MacIntel,55.55555556
space,0.949,space,1.36,,,ms_large,0,154,154,154,1,0.918,0.2,False,None,D04,r2,2021-04-29_14h06.49.569,subsecond_timing_v2,2021.1.2,MacIntel,55.55555556
space,1.049,space,0.865,,,ms_large,0,155,155,155,1,0.847,0.2,False,None,D04,r2,2021-04-29_14h06.49.569,subsecond_timing_v2,2021.1.2,MacIntel,55.55555556
space,0.822,space,1.167,,,ms_large,0,156,156,156,1,1.129,0.3,False,None,D04,r2,2021-04-29_14h06.49.569,subsecond_timing_v2,2021.1.2,MacIntel,55.55555556
space,0.847,space,0.967,,,ms_large,0,157,157,157,1,1.024,0.1,False,None,D04,r2,2021-04-29_14h06.49.569,subsecond_timing_v2,2021.1.2,MacIntel,55.55555556
space,1.038,space,0.834,,,ms_large,0,158,158,158,1,0.988,0.2,False,None,D04,r2,2021-04-29_14h06.49.569,subsecond_timing_v2,2021.1.2,MacIntel,55.55555556
space,1.063,space,0.932,,,ms_large,0,159,159,159,1,1.094,0.2,False,None,D04,r2,2021-04-29_14h06.49.569,subsecond_timing_v2,2021.1.2,MacIntel,55.55555556
space,1.005,space,0.89,,,ms_large,0,160,160,160,1,1.129,0.2,False,None,D04,r2,2021-04-29_14h06.49.569,subsecond_timing_v2,2021.1.2,MacIntel,55.55555556
space,0.971,space,0.938,,,ms_large,0,161,161,161,1,0.953,0.2,False,None,D04,r2,2021-04-29_14h06.49.569,subsecond_timing_v2,2021.1.2,MacIntel,55.55555556
space,1.055,space,0.804,,,ms_large,0,162,162,162,1,0.847,0.3,False,None,D04,r2,2021-04-29_14h06.49.569,subsecond_timing_v2,2021.1.2,MacIntel,55.55555556
space,0.881,space,1.006,,,ms_large,0,163,163,163,1,0.988,0.1,False,None,D04,r2,2021-04-29_14h06.49.569,subsecond_timing_v2,2021.1.2,MacIntel,55.55555556
space,1.027,space,0.789,,,ms_large,0,164,164,164,1,0.882,0.1,False,None,D04,r2,2021-04-29_14h06.49.569,subsecond_timing_v2,2021.1.2,MacIntel,55.55555556
space,0.324,space,0.679,,,ms_large,0,165,165,165,1,1.094,0.1,False,None,D04,r2,2021-04-29_14h06.49.569,subsecond_timing_v2,2021.1.2,MacIntel,55.55555556
space,1.087,space,0.88,,,ms_large,0,166,166,166,1,0.918,0.2,False,None,D04,r2,2021-04-29_14h06.49.569,subsecond_timing_v2,2021.1.2,MacIntel,55.55555556
space,0.773,space,0.943,,,ms_large,0,167,167,167,1,1.024,0.3,False,None,D04,r2,2021-04-29_14h06.49.569,subsecond_timing_v2,2021.1.2,MacIntel,55.55555556
space,0.345,space,1.391,,,ms_large,0,168,168,168,1,1.059,0.1,False,None,D04,r2,2021-04-29_14h06.49.569,subsecond_timing_v2,2021.1.2,MacIntel,55.55555556
space,0.776,space,0.929,,,ms_large,0,169,169,169,1,1.2,0.3,False,None,D04,r2,2021-04-29_14h06.49.569,subsecond_timing_v2,2021.1.2,MacIntel,55.55555556
space,0.904,space,1.05,,,ms_large,0,170,170,170,1,1.165,0.3,False,None,D04,r2,2021-04-29_14h06.49.569,subsecond_timing_v2,2021.1.2,MacIntel,55.55555556
space,0.81,space,0.993,,,ms_large,0,171,171,171,1,1.094,0.1,False,None,D04,r2,2021-04-29_14h06.49.569,subsecond_timing_v2,2021.1.2,MacIntel,55.55555556
space,1.03,space,0.712,,,ms_large,0,172,172,172,1,1.024,0.1,False,None,D04,r2,2021-04-29_14h06.49.569,subsecond_timing_v2,2021.1.2,MacIntel,55.55555556
space,1.18,space,0.834,,,ms_large,0,173,173,173,1,0.988,0.2,False,None,D04,r2,2021-04-29_14h06.49.569,subsecond_timing_v2,2021.1.2,MacIntel,55.55555556
space,0.833,space,1.033,,,ms_large,0,174,174,174,1,1.165,0.3,False,None,D04,r2,2021-04-29_14h06.49.569,subsecond_timing_v2,2021.1.2,MacIntel,55.55555556
space,1.013,space,0.808,,,ms_large,0,175,175,175,1,0.847,0.1,False,None,D04,r2,2021-04-29_14h06.49.569,subsecond_timing_v2,2021.1.2,MacIntel,55.55555556
space,1.051,space,0.986,,,ms_large,0,176,176,176,1,1.2,0.1,False,None,D04,r2,2021-04-29_14h06.49.569,subsecond_timing_v2,2021.1.2,MacIntel,55.55555556
space,1.116,space,0.877,,,ms_large,0,177,177,177,1,0.882,0.1,False,None,D04,r2,2021-04-29_14h06.49.569,subsecond_timing_v2,2021.1.2,MacIntel,55.55555556
space,1.046,space,1.216,,,ms_large,0,178,178,178,1,1.129,0.1,False,None,D04,r2,2021-04-29_14h06.49.569,subsecond_timing_v2,2021.1.2,MacIntel,55.55555556
space,1.008,space,0.991,,,ms_large,0,179,179,179,1,0.953,0.1,False,None,D04,r2,2021-04-29_14h06.49.569,subsecond_timing_v2,2021.1.2,MacIntel,55.55555556
space,0.855,space,1.085,,,ms_large,0,180,180,180,1,0.918,0.3,False,None,D04,r2,2021-04-29_14h06.49.569,subsecond_timing_v2,2021.1.2,MacIntel,55.55555556
space,0.902,space,0.988,,,ms_large,0,181,181,181,1,1.059,0.2,False,None,D04,r2,2021-04-29_14h06.49.569,subsecond_timing_v2,2021.1.2,MacIntel,55.55555556
space,0.824,space,0.916,,,ms_large,0,182,182,182,1,1.165,0.1,False,None,D04,r2,2021-04-29_14h06.49.569,subsecond_timing_v2,2021.1.2,MacIntel,55.55555556
space,0.965,space,1.001,,,ms_large,0,183,183,183,1,1.024,0.3,False,None,D04,r2,2021-04-29_14h06.49.569,subsecond_timing_v2,2021.1.2,MacIntel,55.55555556
space,0.849,space,1.105,,,ms_large,0,184,184,184,1,1.2,0.2,False,None,D04,r2,2021-04-29_14h06.49.569,subsecond_timing_v2,2021.1.2,MacIntel,55.55555556
space,0.903,space,1.064,,,ms_large,0,185,185,185,1,0.882,0.3,False,None,D04,r2,2021-04-29_14h06.49.569,subsecond_timing_v2,2021.1.2,MacIntel,55.55555556
space,1.103,space,1.175,,,ms_large,0,186,186,186,1,1.129,0.3,False,None,D04,r2,2021-04-29_14h06.49.569,subsecond_timing_v2,2021.1.2,MacIntel,55.55555556
space,0.95,space,0.834,,,ms_large,0,187,187,187,1,0.953,0.1,False,None,D04,r2,2021-04-29_14h06.49.569,subsecond_timing_v2,2021.1.2,MacIntel,55.55555556
space,0.732,space,0.939,,,ms_large,0,188,188,188,1,0.988,0.1,False,None,D04,r2,2021-04-29_14h06.49.569,subsecond_timing_v2,2021.1.2,MacIntel,55.55555556
space,0.837,space,0.849,,,ms_large,0,189,189,189,1,0.918,0.3,False,None,D04,r2,2021-04-29_14h06.49.569,subsecond_timing_v2,2021.1.2,MacIntel,55.55555556
space,0.766,space,0.984,,,ms_large,0,190,190,190,1,1.059,0.2,False,None,D04,r2,2021-04-29_14h06.49.569,subsecond_timing_v2,2021.1.2,MacIntel,55.55555556
space,0.819,space,0.822,,,ms_large,0,191,191,191,1,0.847,0.3,False,None,D04,r2,2021-04-29_14h06.49.569,subsecond_timing_v2,2021.1.2,MacIntel,55.55555556
space,0.677,space,1.117,,,ms_large,0,192,192,192,1,1.094,0.3,False,None,D04,r2,2021-04-29_14h06.49.569,subsecond_timing_v2,2021.1.2,MacIntel,55.55555556
space,1.025,space,0.795,,,ms_large,0,193,193,193,1,0.847,0.1,False,None,D04,r2,2021-04-29_14h06.49.569,subsecond_timing_v2,2021.1.2,MacIntel,55.55555556
space,0.72,space,1.308,,,ms_large,0,194,194,194,1,1.2,0.2,False,None,D04,r2,2021-04-29_14h06.49.569,subsecond_timing_v2,2021.1.2,MacIntel,55.55555556
space,1.071,space,0.92,,,ms_large,0,195,195,195,1,0.918,0.3,False,None,D04,r2,2021-04-29_14h06.49.569,subsecond_timing_v2,2021.1.2,MacIntel,55.55555556
space,0.887,space,0.838,,,ms_large,0,196,196,196,1,1.024,0.2,False,None,D04,r2,2021-04-29_14h06.49.569,subsecond_timing_v2,2021.1.2,MacIntel,55.55555556
space,0.782,space,1.022,,,ms_large,0,197,197,197,1,1.094,0.1,False,None,D04,r2,2021-04-29_14h06.49.569,subsecond_timing_v2,2021.1.2,MacIntel,55.55555556
space,0.642,space,0.843,,,ms_large,0,198,198,198,1,0.953,0.1,False,None,D04,r2,2021-04-29_14h06.49.569,subsecond_timing_v2,2021.1.2,MacIntel,55.55555556
space,0.825,space,1.204,,,ms_large,0,199,199,199,1,1.129,0.3,False,None,D04,r2,2021-04-29_14h06.49.569,subsecond_timing_v2,2021.1.2,MacIntel,55.55555556
space,0.773,space,1.02,,,ms_large,0,200,200,200,1,0.988,0.1,False,None,D04,r2,2021-04-29_14h06.49.569,subsecond_timing_v2,2021.1.2,MacIntel,55.55555556
space,0.831,space,0.625,,,ms_large,0,201,201,201,1,0.882,0.3,False,None,D04,r2,2021-04-29_14h06.49.569,subsecond_timing_v2,2021.1.2,MacIntel,55.55555556
space,0.73,space,1.182,,,ms_large,0,202,202,202,1,1.059,0.3,False,None,D04,r2,2021-04-29_14h06.49.569,subsecond_timing_v2,2021.1.2,MacIntel,55.55555556
space,1.07,space,1.037,,,ms_large,0,203,203,203,1,1.165,0.2,False,None,D04,r2,2021-04-29_14h06.49.569,subsecond_timing_v2,2021.1.2,MacIntel,55.55555556
space,0.999,space,1.283,,,ms_large,0,204,204,204,1,0.953,0.2,False,None,D04,r2,2021-04-29_14h06.49.569,subsecond_timing_v2,2021.1.2,MacIntel,55.55555556
space,0.855,space,1.072,,,ms_large,0,205,205,205,1,1.094,0.3,False,None,D04,r2,2021-04-29_14h06.49.569,subsecond_timing_v2,2021.1.2,MacIntel,55.55555556
space,1.813,space,1.009,,,ms_large,0,206,206,206,1,1.2,0.2,False,None,D04,r2,2021-04-29_14h06.49.569,subsecond_timing_v2,2021.1.2,MacIntel,55.55555556
space,1.213,space,1.005,,,ms_large,0,207,207,207,1,1.024,0.1,False,None,D04,r2,2021-04-29_14h06.49.569,subsecond_timing_v2,2021.1.2,MacIntel,55.55555556
space,1.071,space,1.106,,,ms_large,0,208,208,208,1,0.847,0.3,False,None,D04,r2,2021-04-29_14h06.49.569,subsecond_timing_v2,2021.1.2,MacIntel,55.55555556
space,1.129,space,1.126,,,ms_large,0,209,209,209,1,1.129,0.2,False,None,D04,r2,2021-04-29_14h06.49.569,subsecond_timing_v2,2021.1.2,MacIntel,55.55555556
space,0.858,space,1.046,,,ms_large,0,210,210,210,1,1.165,0.3,False,None,D04,r2,2021-04-29_14h06.49.569,subsecond_timing_v2,2021.1.2,MacIntel,55.55555556
space,0.985,space,0.848,,,ms_large,0,211,211,211,1,0.988,0.3,False,None,D04,r2,2021-04-29_14h06.49.569,subsecond_timing_v2,2021.1.2,MacIntel,55.55555556
space,1.082,space,0.957,,,ms_large,0,212,212,212,1,0.882,0.3,False,None,D04,r2,2021-04-29_14h06.49.569,subsecond_timing_v2,2021.1.2,MacIntel,55.55555556
space,1.032,space,1.19,,,ms_large,0,213,213,213,1,1.059,0.2,False,None,D04,r2,2021-04-29_14h06.49.569,subsecond_timing_v2,2021.1.2,MacIntel,55.55555556
space,1.042,space,1.018,,,ms_large,0,214,214,214,1,0.918,0.3,False,None,D04,r2,2021-04-29_14h06.49.569,subsecond_timing_v2,2021.1.2,MacIntel,55.55555556
space,1.122,space,0.836,,,ms_large,0,215,215,215,1,0.953,0.2,False,None,D04,r2,2021-04-29_14h06.49.569,subsecond_timing_v2,2021.1.2,MacIntel,55.55555556
space,1.084,space,0.783,,,ms_large,0,216,216,216,1,0.847,0.3,False,None,D04,r2,2021-04-29_14h06.49.569,subsecond_timing_v2,2021.1.2,MacIntel,55.55555556
space,0.924,space,0.737,,,ms_large,0,217,217,217,1,1.024,0.1,False,None,D04,r2,2021-04-29_14h06.49.569,subsecond_timing_v2,2021.1.2,MacIntel,55.55555556
space,0.875,space,1.018,,,ms_large,0,218,218,218,1,1.059,0.3,False,None,D04,r2,2021-04-29_14h06.49.569,subsecond_timing_v2,2021.1.2,MacIntel,55.55555556
space,0.904,space,1.381,,,ms_large,0,219,219,219,1,0.988,0.1,False,None,D04,r2,2021-04-29_14h06.49.569,subsecond_timing_v2,2021.1.2,MacIntel,55.55555556
space,0.785,space,1.016,,,ms_large,0,220,220,220,1,1.094,0.1,False,None,D04,r2,2021-04-29_14h06.49.569,subsecond_timing_v2,2021.1.2,MacIntel,55.55555556
space,0.946,space,0.974,,,ms_large,0,221,221,221,1,0.918,0.3,False,None,D04,r2,2021-04-29_14h06.49.569,subsecond_timing_v2,2021.1.2,MacIntel,55.55555556
space,0.974,space,1.233,,,ms_large,0,222,222,222,1,0.882,0.1,False,None,D04,r2,2021-04-29_14h06.49.569,subsecond_timing_v2,2021.1.2,MacIntel,55.55555556
space,0.842,space,1.007,,,ms_large,0,223,223,223,1,1.129,0.2,False,None,D04,r2,2021-04-29_14h06.49.569,subsecond_timing_v2,2021.1.2,MacIntel,55.55555556
space,0.785,space,1,,,ms_large,0,224,224,224,1,1.165,0.3,False,None,D04,r2,2021-04-29_14h06.49.569,subsecond_timing_v2,2021.1.2,MacIntel,55.55555556
space,1.832,space,1.122,,,ms_large,0,225,225,225,1,1.2,0.3,False,None,D04,r2,2021-04-29_14h06.49.569,subsecond_timing_v2,2021.1.2,MacIntel,55.55555556
