key_resp_start.keys,key_resp_start.rt,key_resp_stop.keys,key_resp_stop.rt,feedback_range,hit,stimulus_range,trials.thisRepN,trials.thisTrialN,trials.thisN,trials.thisIndex,trials.ran,stimulus_duration,onset,feedback,feedback_range_fromfile,participant,session,date,expName,psychopyVersion,OS,frameRate
space,2.034,space,0.871,0.3,TRUE,Training,0,0,0,0,1,1,0.2,True,0.3,D06,r2,2021-05-02_16h39.18.285,subsecond_timing_v2,2021.1.2,Win32,59.95203837
space,1.585,space,0.607,0.3,TRUE,Training,0,1,1,1,1,0.75,0.2,True,0.3,D06,r2,2021-05-02_16h39.18.285,subsecond_timing_v2,2021.1.2,Win32,59.95203837
space,1.834,space,0.285,0.3,FALSE,Training,0,2,2,2,1,0.5,0.2,True,0.3,D06,r2,2021-05-02_16h39.18.285,subsecond_timing_v2,2021.1.2,Win32,59.95203837
space,3.985,space,0.587,0.3,TRUE,Training,0,3,3,3,1,0.5,0.3,True,0.3,D06,r2,2021-05-02_16h39.18.285,subsecond_timing_v2,2021.1.2,Win32,59.95203837
space,1.523,space,0.82,0.3,TRUE,Training,0,4,4,4,1,0.75,0.3,True,0.3,D06,r2,2021-05-02_16h39.18.285,subsecond_timing_v2,2021.1.2,Win32,59.95203837
space,1.219,space,1.136,0.3,TRUE,Training,0,5,5,5,1,1,0.3,True,0.3,D06,r2,2021-05-02_16h39.18.285,subsecond_timing_v2,2021.1.2,Win32,59.95203837
space,1.22,space,1.168,,,ms_large,0,6,6,6,1,1.165,0.2,False,None,D06,r2,2021-05-02_16h39.18.285,subsecond_timing_v2,2021.1.2,Win32,59.95203837
space,1.202,space,1.336,,,ms_large,0,7,7,7,1,1.094,0.3,False,None,D06,r2,2021-05-02_16h39.18.285,subsecond_timing_v2,2021.1.2,Win32,59.95203837
space,1.251,space,1.303,,,ms_large,0,8,8,8,1,1.2,0.3,False,None,D06,r2,2021-05-02_16h39.18.285,subsecond_timing_v2,2021.1.2,Win32,59.95203837
space,1.134,space,1.187,,,ms_large,0,9,9,9,1,1.024,0.1,False,None,D06,r2,2021-05-02_16h39.18.285,subsecond_timing_v2,2021.1.2,Win32,59.95203837
space,1.318,space,1.086,,,ms_large,0,10,10,10,1,0.953,0.3,False,None,D06,r2,2021-05-02_16h39.18.285,subsecond_timing_v2,2021.1.2,Win32,59.95203837
space,1.218,space,1.068,,,ms_large,0,11,11,11,1,0.847,0.1,False,None,D06,r2,2021-05-02_16h39.18.285,subsecond_timing_v2,2021.1.2,Win32,59.95203837
space,1.467,space,1.133,,,ms_large,0,12,12,12,1,0.882,0.3,False,None,D06,r2,2021-05-02_16h39.18.285,subsecond_timing_v2,2021.1.2,Win32,59.95203837
space,1.357,space,1.352,,,ms_large,0,13,13,13,1,1.129,0.1,False,None,D06,r2,2021-05-02_16h39.18.285,subsecond_timing_v2,2021.1.2,Win32,59.95203837
space,1.238,space,1.469,,,ms_large,0,14,14,14,1,1.059,0.3,False,None,D06,r2,2021-05-02_16h39.18.285,subsecond_timing_v2,2021.1.2,Win32,59.95203837
space,1.653,space,0.768,,,ms_large,0,15,15,15,1,0.918,0.3,False,None,D06,r2,2021-05-02_16h39.18.285,subsecond_timing_v2,2021.1.2,Win32,59.95203837
space,1.668,space,1.335,,,ms_large,0,16,16,16,1,0.988,0.1,False,None,D06,r2,2021-05-02_16h39.18.285,subsecond_timing_v2,2021.1.2,Win32,59.95203837
space,1.374,space,1.334,,,ms_large,0,17,17,17,1,0.953,0.2,False,None,D06,r2,2021-05-02_16h39.18.285,subsecond_timing_v2,2021.1.2,Win32,59.95203837
space,1.368,space,1.54,,,ms_large,0,18,18,18,1,1.129,0.3,False,None,D06,r2,2021-05-02_16h39.18.285,subsecond_timing_v2,2021.1.2,Win32,59.95203837
space,1.234,space,0.903,,,ms_large,0,19,19,19,1,0.988,0.2,False,None,D06,r2,2021-05-02_16h39.18.285,subsecond_timing_v2,2021.1.2,Win32,59.95203837
space,1.454,space,0.969,,,ms_large,0,20,20,20,1,1.024,0.1,False,None,D06,r2,2021-05-02_16h39.18.285,subsecond_timing_v2,2021.1.2,Win32,59.95203837
space,1.155,space,1.402,,,ms_large,0,21,21,21,1,1.165,0.1,False,None,D06,r2,2021-05-02_16h39.18.285,subsecond_timing_v2,2021.1.2,Win32,59.95203837
space,0.918,space,1.467,,,ms_large,0,22,22,22,1,1.2,0.1,False,None,D06,r2,2021-05-02_16h39.18.285,subsecond_timing_v2,2021.1.2,Win32,59.95203837
space,0.868,space,1.035,,,ms_large,0,23,23,23,1,0.882,0.2,False,None,D06,r2,2021-05-02_16h39.18.285,subsecond_timing_v2,2021.1.2,Win32,59.95203837
space,3.117,space,0.901,,,ms_large,0,24,24,24,1,0.847,0.3,False,None,D06,r2,2021-05-02_16h39.18.285,subsecond_timing_v2,2021.1.2,Win32,59.95203837
space,1.438,space,1.407,,,ms_large,0,25,25,25,1,1.094,0.1,False,None,D06,r2,2021-05-02_16h39.18.285,subsecond_timing_v2,2021.1.2,Win32,59.95203837
space,1.267,space,1.303,,,ms_large,0,26,26,26,1,1.059,0.1,False,None,D06,r2,2021-05-02_16h39.18.285,subsecond_timing_v2,2021.1.2,Win32,59.95203837
space,1.086,space,0.92,,,ms_large,0,27,27,27,1,0.918,0.3,False,None,D06,r2,2021-05-02_16h39.18.285,subsecond_timing_v2,2021.1.2,Win32,59.95203837
space,1.583,space,1.037,,,ms_large,0,28,28,28,1,0.988,0.2,False,None,D06,r2,2021-05-02_16h39.18.285,subsecond_timing_v2,2021.1.2,Win32,59.95203837
space,1.018,space,1.301,,,ms_large,0,29,29,29,1,1.165,0.2,False,None,D06,r2,2021-05-02_16h39.18.285,subsecond_timing_v2,2021.1.2,Win32,59.95203837
space,1.002,space,1.236,,,ms_large,0,30,30,30,1,1.129,0.1,False,None,D06,r2,2021-05-02_16h39.18.285,subsecond_timing_v2,2021.1.2,Win32,59.95203837
space,1.157,space,0.92,,,ms_large,0,31,31,31,1,1.059,0.1,False,None,D06,r2,2021-05-02_16h39.18.285,subsecond_timing_v2,2021.1.2,Win32,59.95203837
space,1.535,space,0.899,,,ms_large,0,32,32,32,1,0.918,0.3,False,None,D06,r2,2021-05-02_16h39.18.285,subsecond_timing_v2,2021.1.2,Win32,59.95203837
space,1.103,space,1.318,,,ms_large,0,33,33,33,1,1.2,0.3,False,None,D06,r2,2021-05-02_16h39.18.285,subsecond_timing_v2,2021.1.2,Win32,59.95203837
space,1.206,space,0.753,,,ms_large,0,34,34,34,1,0.847,0.1,False,None,D06,r2,2021-05-02_16h39.18.285,subsecond_timing_v2,2021.1.2,Win32,59.95203837
space,1.169,space,1.018,,,ms_large,0,35,35,35,1,1.024,0.1,False,None,D06,r2,2021-05-02_16h39.18.285,subsecond_timing_v2,2021.1.2,Win32,59.95203837
space,0.885,space,0.904,,,ms_large,0,36,36,36,1,0.882,0.1,False,None,D06,r2,2021-05-02_16h39.18.285,subsecond_timing_v2,2021.1.2,Win32,59.95203837
space,1.552,space,1.118,,,ms_large,0,37,37,37,1,1.094,0.2,False,None,D06,r2,2021-05-02_16h39.18.285,subsecond_timing_v2,2021.1.2,Win32,59.95203837
space,1.615,space,0.918,,,ms_large,0,38,38,38,1,0.953,0.1,False,None,D06,r2,2021-05-02_16h39.18.285,subsecond_timing_v2,2021.1.2,Win32,59.95203837
space,1.618,space,1.173,,,ms_large,0,39,39,39,1,1.165,0.2,False,None,D06,r2,2021-05-02_16h39.18.285,subsecond_timing_v2,2021.1.2,Win32,59.95203837
space,1.267,space,0.903,,,ms_large,0,40,40,40,1,0.953,0.1,False,None,D06,r2,2021-05-02_16h39.18.285,subsecond_timing_v2,2021.1.2,Win32,59.95203837
space,1.368,space,1.058,,,ms_large,0,41,41,41,1,0.988,0.1,False,None,D06,r2,2021-05-02_16h39.18.285,subsecond_timing_v2,2021.1.2,Win32,59.95203837
space,1.118,space,1.322,,,ms_large,0,42,42,42,1,1.094,0.1,False,None,D06,r2,2021-05-02_16h39.18.285,subsecond_timing_v2,2021.1.2,Win32,59.95203837
space,1.085,space,1.368,,,ms_large,0,43,43,43,1,1.129,0.3,False,None,D06,r2,2021-05-02_16h39.18.285,subsecond_timing_v2,2021.1.2,Win32,59.95203837
space,1.435,space,1.036,,,ms_large,0,44,44,44,1,0.882,0.2,False,None,D06,r2,2021-05-02_16h39.18.285,subsecond_timing_v2,2021.1.2,Win32,59.95203837
space,1.317,space,1.352,,,ms_large,0,45,45,45,1,1.2,0.1,False,None,D06,r2,2021-05-02_16h39.18.285,subsecond_timing_v2,2021.1.2,Win32,59.95203837
space,1.485,space,1.301,,,ms_large,0,46,46,46,1,1.024,0.1,False,None,D06,r2,2021-05-02_16h39.18.285,subsecond_timing_v2,2021.1.2,Win32,59.95203837
space,1.069,space,1.152,,,ms_large,0,47,47,47,1,0.918,0.2,False,None,D06,r2,2021-05-02_16h39.18.285,subsecond_timing_v2,2021.1.2,Win32,59.95203837
space,1.52,space,1.018,,,ms_large,0,48,48,48,1,0.847,0.1,False,None,D06,r2,2021-05-02_16h39.18.285,subsecond_timing_v2,2021.1.2,Win32,59.95203837
space,1.019,space,1.237,,,ms_large,0,49,49,49,1,1.059,0.3,False,None,D06,r2,2021-05-02_16h39.18.285,subsecond_timing_v2,2021.1.2,Win32,59.95203837
space,1.055,space,1.152,,,ms_large,0,50,50,50,1,0.953,0.2,False,None,D06,r2,2021-05-02_16h39.18.285,subsecond_timing_v2,2021.1.2,Win32,59.95203837
space,1.004,space,1.42,,,ms_large,0,51,51,51,1,1.024,0.3,False,None,D06,r2,2021-05-02_16h39.18.285,subsecond_timing_v2,2021.1.2,Win32,59.95203837
space,1.019,space,1.185,,,ms_large,0,52,52,52,1,1.165,0.3,False,None,D06,r2,2021-05-02_16h39.18.285,subsecond_timing_v2,2021.1.2,Win32,59.95203837
space,1.418,space,0.869,,,ms_large,0,53,53,53,1,0.847,0.3,False,None,D06,r2,2021-05-02_16h39.18.285,subsecond_timing_v2,2021.1.2,Win32,59.95203837
space,1.007,space,1.273,,,ms_large,0,54,54,54,1,1.2,0.1,False,None,D06,r2,2021-05-02_16h39.18.285,subsecond_timing_v2,2021.1.2,Win32,59.95203837
space,0.967,space,1.303,,,ms_large,0,55,55,55,1,0.988,0.3,False,None,D06,r2,2021-05-02_16h39.18.285,subsecond_timing_v2,2021.1.2,Win32,59.95203837
space,1.107,space,0.969,,,ms_large,0,56,56,56,1,0.882,0.1,False,None,D06,r2,2021-05-02_16h39.18.285,subsecond_timing_v2,2021.1.2,Win32,59.95203837
space,1.35,space,1.286,,,ms_large,0,57,57,57,1,1.059,0.1,False,None,D06,r2,2021-05-02_16h39.18.285,subsecond_timing_v2,2021.1.2,Win32,59.95203837
space,1.27,space,1.086,,,ms_large,0,58,58,58,1,1.094,0.1,False,None,D06,r2,2021-05-02_16h39.18.285,subsecond_timing_v2,2021.1.2,Win32,59.95203837
space,0.918,space,1.152,,,ms_large,0,59,59,59,1,1.129,0.3,False,None,D06,r2,2021-05-02_16h39.18.285,subsecond_timing_v2,2021.1.2,Win32,59.95203837
space,1.585,space,0.986,,,ms_large,0,60,60,60,1,0.918,0.3,False,None,D06,r2,2021-05-02_16h39.18.285,subsecond_timing_v2,2021.1.2,Win32,59.95203837
space,1.138,space,1.134,,,ms_large,0,61,61,61,1,1.129,0.1,False,None,D06,r2,2021-05-02_16h39.18.285,subsecond_timing_v2,2021.1.2,Win32,59.95203837
space,1.185,space,1.134,,,ms_large,0,62,62,62,1,1.165,0.3,False,None,D06,r2,2021-05-02_16h39.18.285,subsecond_timing_v2,2021.1.2,Win32,59.95203837
space,1.036,space,1.186,,,ms_large,0,63,63,63,1,0.953,0.2,False,None,D06,r2,2021-05-02_16h39.18.285,subsecond_timing_v2,2021.1.2,Win32,59.95203837
space,1.117,space,1.319,,,ms_large,0,64,64,64,1,1.094,0.2,False,None,D06,r2,2021-05-02_16h39.18.285,subsecond_timing_v2,2021.1.2,Win32,59.95203837
space,1.156,space,1.134,,,ms_large,0,65,65,65,1,0.882,0.1,False,None,D06,r2,2021-05-02_16h39.18.285,subsecond_timing_v2,2021.1.2,Win32,59.95203837
space,1.487,space,0.969,,,ms_large,0,66,66,66,1,0.918,0.2,False,None,D06,r2,2021-05-02_16h39.18.285,subsecond_timing_v2,2021.1.2,Win32,59.95203837
space,1.219,space,1.256,,,ms_large,0,67,67,67,1,0.988,0.1,False,None,D06,r2,2021-05-02_16h39.18.285,subsecond_timing_v2,2021.1.2,Win32,59.95203837
space,1.103,space,1.17,,,ms_large,0,68,68,68,1,1.024,0.1,False,None,D06,r2,2021-05-02_16h39.18.285,subsecond_timing_v2,2021.1.2,Win32,59.95203837
space,1.102,space,1.2,,,ms_large,0,69,69,69,1,1.2,0.1,False,None,D06,r2,2021-05-02_16h39.18.285,subsecond_timing_v2,2021.1.2,Win32,59.95203837
space,1.47,space,1.219,,,ms_large,0,70,70,70,1,1.059,0.1,False,None,D06,r2,2021-05-02_16h39.18.285,subsecond_timing_v2,2021.1.2,Win32,59.95203837
space,1.318,space,1.169,,,ms_large,0,71,71,71,1,0.847,0.1,False,None,D06,r2,2021-05-02_16h39.18.285,subsecond_timing_v2,2021.1.2,Win32,59.95203837
space,1.17,space,1.137,,,ms_large,0,72,72,72,1,1.094,0.2,False,None,D06,r2,2021-05-02_16h39.18.285,subsecond_timing_v2,2021.1.2,Win32,59.95203837
space,1.102,space,1.035,,,ms_large,0,73,73,73,1,0.918,0.3,False,None,D06,r2,2021-05-02_16h39.18.285,subsecond_timing_v2,2021.1.2,Win32,59.95203837
space,0.954,space,1.085,,,ms_large,0,74,74,74,1,0.953,0.2,False,None,D06,r2,2021-05-02_16h39.18.285,subsecond_timing_v2,2021.1.2,Win32,59.95203837
space,0.985,space,1.084,,,ms_large,0,75,75,75,1,0.882,0.2,False,None,D06,r2,2021-05-02_16h39.18.285,subsecond_timing_v2,2021.1.2,Win32,59.95203837
space,0.989,space,1.006,,,ms_large,0,76,76,76,1,0.988,0.3,False,None,D06,r2,2021-05-02_16h39.18.285,subsecond_timing_v2,2021.1.2,Win32,59.95203837
space,1.367,space,1.353,,,ms_large,0,77,77,77,1,1.2,0.1,False,None,D06,r2,2021-05-02_16h39.18.285,subsecond_timing_v2,2021.1.2,Win32,59.95203837
space,1.205,space,1.267,,,ms_large,0,78,78,78,1,1.024,0.2,False,None,D06,r2,2021-05-02_16h39.18.285,subsecond_timing_v2,2021.1.2,Win32,59.95203837
space,1.084,space,1.121,,,ms_large,0,79,79,79,1,1.129,0.1,False,None,D06,r2,2021-05-02_16h39.18.285,subsecond_timing_v2,2021.1.2,Win32,59.95203837
space,1.036,space,1.07,,,ms_large,0,80,80,80,1,1.165,0.3,False,None,D06,r2,2021-05-02_16h39.18.285,subsecond_timing_v2,2021.1.2,Win32,59.95203837
space,1.17,space,1.386,,,ms_large,0,81,81,81,1,1.059,0.2,False,None,D06,r2,2021-05-02_16h39.18.285,subsecond_timing_v2,2021.1.2,Win32,59.95203837
space,1.352,space,0.92,,,ms_large,0,82,82,82,1,0.847,0.1,False,None,D06,r2,2021-05-02_16h39.18.285,subsecond_timing_v2,2021.1.2,Win32,59.95203837
space,0.933,space,1.087,,,ms_large,0,83,83,83,1,1.024,0.1,False,None,D06,r2,2021-05-02_16h39.18.285,subsecond_timing_v2,2021.1.2,Win32,59.95203837
space,0.902,space,1.173,,,ms_large,0,84,84,84,1,1.059,0.3,False,None,D06,r2,2021-05-02_16h39.18.285,subsecond_timing_v2,2021.1.2,Win32,59.95203837
space,1.336,space,1.056,,,ms_large,0,85,85,85,1,0.918,0.1,False,None,D06,r2,2021-05-02_16h39.18.285,subsecond_timing_v2,2021.1.2,Win32,59.95203837
space,1.119,space,1.537,,,ms_large,0,86,86,86,1,1.165,0.1,False,None,D06,r2,2021-05-02_16h39.18.285,subsecond_timing_v2,2021.1.2,Win32,59.95203837
space,1.053,space,1.354,,,ms_large,0,87,87,87,1,0.953,0.1,False,None,D06,r2,2021-05-02_16h39.18.285,subsecond_timing_v2,2021.1.2,Win32,59.95203837
space,1.569,space,1.185,,,ms_large,0,88,88,88,1,0.882,0.1,False,None,D06,r2,2021-05-02_16h39.18.285,subsecond_timing_v2,2021.1.2,Win32,59.95203837
space,0.751,space,1.168,,,ms_large,0,89,89,89,1,0.847,0.1,False,None,D06,r2,2021-05-02_16h39.18.285,subsecond_timing_v2,2021.1.2,Win32,59.95203837
space,1.335,space,1.202,,,ms_large,0,90,90,90,1,1.094,0.1,False,None,D06,r2,2021-05-02_16h39.18.285,subsecond_timing_v2,2021.1.2,Win32,59.95203837
space,1.601,space,1.419,,,ms_large,0,91,91,91,1,1.129,0.2,False,None,D06,r2,2021-05-02_16h39.18.285,subsecond_timing_v2,2021.1.2,Win32,59.95203837
space,1.117,space,1.42,,,ms_large,0,92,92,92,1,1.2,0.1,False,None,D06,r2,2021-05-02_16h39.18.285,subsecond_timing_v2,2021.1.2,Win32,59.95203837
space,1.421,space,1.002,,,ms_large,0,93,93,93,1,0.988,0.1,False,None,D06,r2,2021-05-02_16h39.18.285,subsecond_timing_v2,2021.1.2,Win32,59.95203837
space,0.851,space,1.32,,,ms_large,0,94,94,94,1,1.129,0.3,False,None,D06,r2,2021-05-02_16h39.18.285,subsecond_timing_v2,2021.1.2,Win32,59.95203837
space,0.939,space,1.418,,,ms_large,0,95,95,95,1,1.165,0.2,False,None,D06,r2,2021-05-02_16h39.18.285,subsecond_timing_v2,2021.1.2,Win32,59.95203837
space,0.94,space,1.239,,,ms_large,0,96,96,96,1,1.024,0.3,False,None,D06,r2,2021-05-02_16h39.18.285,subsecond_timing_v2,2021.1.2,Win32,59.95203837
space,1.32,space,0.751,,,ms_large,0,97,97,97,1,1.094,0.1,False,None,D06,r2,2021-05-02_16h39.18.285,subsecond_timing_v2,2021.1.2,Win32,59.95203837
space,2.473,space,0.736,,,ms_large,0,98,98,98,1,1.059,0.2,False,None,D06,r2,2021-05-02_16h39.18.285,subsecond_timing_v2,2021.1.2,Win32,59.95203837
space,1.135,space,0.971,,,ms_large,0,99,99,99,1,1.2,0.1,False,None,D06,r2,2021-05-02_16h39.18.285,subsecond_timing_v2,2021.1.2,Win32,59.95203837
space,1.086,space,0.933,,,ms_large,0,100,100,100,1,0.882,0.3,False,None,D06,r2,2021-05-02_16h39.18.285,subsecond_timing_v2,2021.1.2,Win32,59.95203837
space,0.986,space,0.99,,,ms_large,0,101,101,101,1,0.918,0.3,False,None,D06,r2,2021-05-02_16h39.18.285,subsecond_timing_v2,2021.1.2,Win32,59.95203837
space,1.169,space,0.935,,,ms_large,0,102,102,102,1,0.988,0.3,False,None,D06,r2,2021-05-02_16h39.18.285,subsecond_timing_v2,2021.1.2,Win32,59.95203837
space,1.067,space,0.887,,,ms_large,0,103,103,103,1,0.847,0.1,False,None,D06,r2,2021-05-02_16h39.18.285,subsecond_timing_v2,2021.1.2,Win32,59.95203837
space,1.306,space,1.087,,,ms_large,0,104,104,104,1,0.953,0.3,False,None,D06,r2,2021-05-02_16h39.18.285,subsecond_timing_v2,2021.1.2,Win32,59.95203837
space,0.871,space,1.121,,,ms_large,0,105,105,105,1,0.847,0.3,False,None,D06,r2,2021-05-02_16h39.18.285,subsecond_timing_v2,2021.1.2,Win32,59.95203837
space,1.22,space,1.204,,,ms_large,0,106,106,106,1,1.094,0.3,False,None,D06,r2,2021-05-02_16h39.18.285,subsecond_timing_v2,2021.1.2,Win32,59.95203837
space,0.469,space,1.469,,,ms_large,0,107,107,107,1,1.129,0.3,False,None,D06,r2,2021-05-02_16h39.18.285,subsecond_timing_v2,2021.1.2,Win32,59.95203837
space,1.622,space,0.988,,,ms_large,0,108,108,108,1,0.882,0.3,False,None,D06,r2,2021-05-02_16h39.18.285,subsecond_timing_v2,2021.1.2,Win32,59.95203837
space,1.401,space,1.224,,,ms_large,0,109,109,109,1,0.953,0.2,False,None,D06,r2,2021-05-02_16h39.18.285,subsecond_timing_v2,2021.1.2,Win32,59.95203837
space,1.201,space,1.086,,,ms_large,0,110,110,110,1,0.988,0.1,False,None,D06,r2,2021-05-02_16h39.18.285,subsecond_timing_v2,2021.1.2,Win32,59.95203837
space,1.188,space,1.14,,,ms_large,0,111,111,111,1,1.165,0.3,False,None,D06,r2,2021-05-02_16h39.18.285,subsecond_timing_v2,2021.1.2,Win32,59.95203837
space,1.135,space,0.949,,,ms_large,0,112,112,112,1,0.918,0.2,False,None,D06,r2,2021-05-02_16h39.18.285,subsecond_timing_v2,2021.1.2,Win32,59.95203837
space,1.057,space,1.103,,,ms_large,0,113,113,113,1,1.059,0.3,False,None,D06,r2,2021-05-02_16h39.18.285,subsecond_timing_v2,2021.1.2,Win32,59.95203837
space,0.957,space,1.184,,,ms_large,0,114,114,114,1,1.2,0.2,False,None,D06,r2,2021-05-02_16h39.18.285,subsecond_timing_v2,2021.1.2,Win32,59.95203837
space,1.218,space,1.003,,,ms_large,0,115,115,115,1,1.024,0.3,False,None,D06,r2,2021-05-02_16h39.18.285,subsecond_timing_v2,2021.1.2,Win32,59.95203837
space,1.103,space,1.185,,,ms_large,0,116,116,116,1,1.129,0.3,False,None,D06,r2,2021-05-02_16h39.18.285,subsecond_timing_v2,2021.1.2,Win32,59.95203837
space,1.289,space,1.402,,,ms_large,0,117,117,117,1,1.2,0.3,False,None,D06,r2,2021-05-02_16h39.18.285,subsecond_timing_v2,2021.1.2,Win32,59.95203837
space,1.317,space,1.255,,,ms_large,0,118,118,118,1,1.024,0.3,False,None,D06,r2,2021-05-02_16h39.18.285,subsecond_timing_v2,2021.1.2,Win32,59.95203837
space,1.151,space,1.102,,,ms_large,0,119,119,119,1,1.094,0.1,False,None,D06,r2,2021-05-02_16h39.18.285,subsecond_timing_v2,2021.1.2,Win32,59.95203837
space,1.268,space,1.085,,,ms_large,0,120,120,120,1,1.059,0.1,False,None,D06,r2,2021-05-02_16h39.18.285,subsecond_timing_v2,2021.1.2,Win32,59.95203837
space,1.319,space,1.054,,,ms_large,0,121,121,121,1,0.988,0.2,False,None,D06,r2,2021-05-02_16h39.18.285,subsecond_timing_v2,2021.1.2,Win32,59.95203837
space,1.17,space,1.153,,,ms_large,0,122,122,122,1,0.847,0.3,False,None,D06,r2,2021-05-02_16h39.18.285,subsecond_timing_v2,2021.1.2,Win32,59.95203837
space,1.209,space,0.975,,,ms_large,0,123,123,123,1,0.953,0.2,False,None,D06,r2,2021-05-02_16h39.18.285,subsecond_timing_v2,2021.1.2,Win32,59.95203837
space,1.336,space,1.068,,,ms_large,0,124,124,124,1,0.918,0.2,False,None,D06,r2,2021-05-02_16h39.18.285,subsecond_timing_v2,2021.1.2,Win32,59.95203837
space,1.041,space,1.071,,,ms_large,0,125,125,125,1,1.165,0.2,False,None,D06,r2,2021-05-02_16h39.18.285,subsecond_timing_v2,2021.1.2,Win32,59.95203837
space,1.658,space,1.27,,,ms_large,0,126,126,126,1,0.882,0.3,False,None,D06,r2,2021-05-02_16h39.18.285,subsecond_timing_v2,2021.1.2,Win32,59.95203837
space,1.2,space,1.087,,,ms_large,0,127,127,127,1,0.882,0.2,False,None,D06,r2,2021-05-02_16h39.18.285,subsecond_timing_v2,2021.1.2,Win32,59.95203837
space,1.185,space,1.265,,,ms_large,0,128,128,128,1,1.094,0.2,False,None,D06,r2,2021-05-02_16h39.18.285,subsecond_timing_v2,2021.1.2,Win32,59.95203837
space,1.319,space,1.135,,,ms_large,0,129,129,129,1,1.024,0.3,False,None,D06,r2,2021-05-02_16h39.18.285,subsecond_timing_v2,2021.1.2,Win32,59.95203837
space,1.953,space,0.75,,,ms_large,0,130,130,130,1,0.847,0.1,False,None,D06,r2,2021-05-02_16h39.18.285,subsecond_timing_v2,2021.1.2,Win32,59.95203837
space,1.102,space,1.302,,,ms_large,0,131,131,131,1,1.2,0.1,False,None,D06,r2,2021-05-02_16h39.18.285,subsecond_timing_v2,2021.1.2,Win32,59.95203837
space,1.236,space,1.034,,,ms_large,0,132,132,132,1,1.059,0.3,False,None,D06,r2,2021-05-02_16h39.18.285,subsecond_timing_v2,2021.1.2,Win32,59.95203837
space,1.402,space,0.854,,,ms_large,0,133,133,133,1,0.918,0.1,False,None,D06,r2,2021-05-02_16h39.18.285,subsecond_timing_v2,2021.1.2,Win32,59.95203837
space,1.002,space,1.018,,,ms_large,0,134,134,134,1,1.129,0.3,False,None,D06,r2,2021-05-02_16h39.18.285,subsecond_timing_v2,2021.1.2,Win32,59.95203837
space,1.738,space,1.086,,,ms_large,0,135,135,135,1,1.165,0.2,False,None,D06,r2,2021-05-02_16h39.18.285,subsecond_timing_v2,2021.1.2,Win32,59.95203837
space,1.701,space,1.056,,,ms_large,0,136,136,136,1,0.953,0.1,False,None,D06,r2,2021-05-02_16h39.18.285,subsecond_timing_v2,2021.1.2,Win32,59.95203837
space,0.886,space,1.001,,,ms_large,0,137,137,137,1,0.988,0.3,False,None,D06,r2,2021-05-02_16h39.18.285,subsecond_timing_v2,2021.1.2,Win32,59.95203837
space,1.135,space,0.918,,,ms_large,0,138,138,138,1,0.847,0.1,False,None,D06,r2,2021-05-02_16h39.18.285,subsecond_timing_v2,2021.1.2,Win32,59.95203837
space,1.007,space,0.935,,,ms_large,0,139,139,139,1,0.882,0.1,False,None,D06,r2,2021-05-02_16h39.18.285,subsecond_timing_v2,2021.1.2,Win32,59.95203837
space,1.036,space,1.151,,,ms_large,0,140,140,140,1,0.988,0.3,False,None,D06,r2,2021-05-02_16h39.18.285,subsecond_timing_v2,2021.1.2,Win32,59.95203837
space,1.084,space,1.003,,,ms_large,0,141,141,141,1,0.953,0.1,False,None,D06,r2,2021-05-02_16h39.18.285,subsecond_timing_v2,2021.1.2,Win32,59.95203837
space,0.934,space,1.201,,,ms_large,0,142,142,142,1,1.165,0.2,False,None,D06,r2,2021-05-02_16h39.18.285,subsecond_timing_v2,2021.1.2,Win32,59.95203837
space,1.117,space,1.206,,,ms_large,0,143,143,143,1,1.059,0.3,False,None,D06,r2,2021-05-02_16h39.18.285,subsecond_timing_v2,2021.1.2,Win32,59.95203837
space,1.124,space,1.072,,,ms_large,0,144,144,144,1,1.2,0.1,False,None,D06,r2,2021-05-02_16h39.18.285,subsecond_timing_v2,2021.1.2,Win32,59.95203837
space,1.107,space,1.103,,,ms_large,0,145,145,145,1,1.094,0.2,False,None,D06,r2,2021-05-02_16h39.18.285,subsecond_timing_v2,2021.1.2,Win32,59.95203837
space,1.138,space,1.139,,,ms_large,0,146,146,146,1,1.024,0.3,False,None,D06,r2,2021-05-02_16h39.18.285,subsecond_timing_v2,2021.1.2,Win32,59.95203837
space,1.089,space,1.103,,,ms_large,0,147,147,147,1,0.918,0.2,False,None,D06,r2,2021-05-02_16h39.18.285,subsecond_timing_v2,2021.1.2,Win32,59.95203837
space,1.333,space,1.186,,,ms_large,0,148,148,148,1,1.129,0.3,False,None,D06,r2,2021-05-02_16h39.18.285,subsecond_timing_v2,2021.1.2,Win32,59.95203837
space,1.203,space,1.269,,,ms_large,0,149,149,149,1,1.165,0.3,False,None,D06,r2,2021-05-02_16h39.18.285,subsecond_timing_v2,2021.1.2,Win32,59.95203837
space,1.152,space,0.72,,,ms_large,0,150,150,150,1,0.882,0.1,False,None,D06,r2,2021-05-02_16h39.18.285,subsecond_timing_v2,2021.1.2,Win32,59.95203837
space,1.218,space,1.204,,,ms_large,0,151,151,151,1,1.2,0.2,False,None,D06,r2,2021-05-02_16h39.18.285,subsecond_timing_v2,2021.1.2,Win32,59.95203837
space,1.186,space,1.036,,,ms_large,0,152,152,152,1,0.953,0.3,False,None,D06,r2,2021-05-02_16h39.18.285,subsecond_timing_v2,2021.1.2,Win32,59.95203837
space,1.167,space,1.102,,,ms_large,0,153,153,153,1,1.059,0.3,False,None,D06,r2,2021-05-02_16h39.18.285,subsecond_timing_v2,2021.1.2,Win32,59.95203837
space,1.185,space,1.051,,,ms_large,0,154,154,154,1,0.918,0.2,False,None,D06,r2,2021-05-02_16h39.18.285,subsecond_timing_v2,2021.1.2,Win32,59.95203837
space,1.237,space,0.853,,,ms_large,0,155,155,155,1,0.847,0.2,False,None,D06,r2,2021-05-02_16h39.18.285,subsecond_timing_v2,2021.1.2,Win32,59.95203837
space,1.136,space,1.154,,,ms_large,0,156,156,156,1,1.129,0.3,False,None,D06,r2,2021-05-02_16h39.18.285,subsecond_timing_v2,2021.1.2,Win32,59.95203837
space,1.101,space,1.073,,,ms_large,0,157,157,157,1,1.024,0.1,False,None,D06,r2,2021-05-02_16h39.18.285,subsecond_timing_v2,2021.1.2,Win32,59.95203837
space,1.1,space,1.037,,,ms_large,0,158,158,158,1,0.988,0.2,False,None,D06,r2,2021-05-02_16h39.18.285,subsecond_timing_v2,2021.1.2,Win32,59.95203837
space,1.083,space,1.002,,,ms_large,0,159,159,159,1,1.094,0.2,False,None,D06,r2,2021-05-02_16h39.18.285,subsecond_timing_v2,2021.1.2,Win32,59.95203837
space,1.158,space,1.018,,,ms_large,0,160,160,160,1,1.129,0.2,False,None,D06,r2,2021-05-02_16h39.18.285,subsecond_timing_v2,2021.1.2,Win32,59.95203837
space,1.101,space,1.001,,,ms_large,0,161,161,161,1,0.953,0.2,False,None,D06,r2,2021-05-02_16h39.18.285,subsecond_timing_v2,2021.1.2,Win32,59.95203837
space,1.136,space,0.918,,,ms_large,0,162,162,162,1,0.847,0.3,False,None,D06,r2,2021-05-02_16h39.18.285,subsecond_timing_v2,2021.1.2,Win32,59.95203837
space,0.941,space,0.785,,,ms_large,0,163,163,163,1,0.988,0.1,False,None,D06,r2,2021-05-02_16h39.18.285,subsecond_timing_v2,2021.1.2,Win32,59.95203837
space,0.904,space,0.804,,,ms_large,0,164,164,164,1,0.882,0.1,False,None,D06,r2,2021-05-02_16h39.18.285,subsecond_timing_v2,2021.1.2,Win32,59.95203837
space,1.585,space,1.069,,,ms_large,0,165,165,165,1,1.094,0.1,False,None,D06,r2,2021-05-02_16h39.18.285,subsecond_timing_v2,2021.1.2,Win32,59.95203837
space,0.934,space,1.018,,,ms_large,0,166,166,166,1,0.918,0.2,False,None,D06,r2,2021-05-02_16h39.18.285,subsecond_timing_v2,2021.1.2,Win32,59.95203837
space,1.001,space,0.952,,,ms_large,0,167,167,167,1,1.024,0.3,False,None,D06,r2,2021-05-02_16h39.18.285,subsecond_timing_v2,2021.1.2,Win32,59.95203837
space,0.953,space,1.137,,,ms_large,0,168,168,168,1,1.059,0.1,False,None,D06,r2,2021-05-02_16h39.18.285,subsecond_timing_v2,2021.1.2,Win32,59.95203837
space,1.171,space,1.086,,,ms_large,0,169,169,169,1,1.2,0.3,False,None,D06,r2,2021-05-02_16h39.18.285,subsecond_timing_v2,2021.1.2,Win32,59.95203837
space,0.953,space,1.202,,,ms_large,0,170,170,170,1,1.165,0.3,False,None,D06,r2,2021-05-02_16h39.18.285,subsecond_timing_v2,2021.1.2,Win32,59.95203837
space,0.987,space,1.053,,,ms_large,0,171,171,171,1,1.094,0.1,False,None,D06,r2,2021-05-02_16h39.18.285,subsecond_timing_v2,2021.1.2,Win32,59.95203837
space,1.185,space,1.17,,,ms_large,0,172,172,172,1,1.024,0.1,False,None,D06,r2,2021-05-02_16h39.18.285,subsecond_timing_v2,2021.1.2,Win32,59.95203837
space,1.037,space,1.037,,,ms_large,0,173,173,173,1,0.988,0.2,False,None,D06,r2,2021-05-02_16h39.18.285,subsecond_timing_v2,2021.1.2,Win32,59.95203837
space,0.89,space,1.052,,,ms_large,0,174,174,174,1,1.165,0.3,False,None,D06,r2,2021-05-02_16h39.18.285,subsecond_timing_v2,2021.1.2,Win32,59.95203837
space,1.152,space,0.92,,,ms_large,0,175,175,175,1,0.847,0.1,False,None,D06,r2,2021-05-02_16h39.18.285,subsecond_timing_v2,2021.1.2,Win32,59.95203837
space,1.02,space,1.048,,,ms_large,0,176,176,176,1,1.2,0.1,False,None,D06,r2,2021-05-02_16h39.18.285,subsecond_timing_v2,2021.1.2,Win32,59.95203837
space,1.22,space,0.985,,,ms_large,0,177,177,177,1,0.882,0.1,False,None,D06,r2,2021-05-02_16h39.18.285,subsecond_timing_v2,2021.1.2,Win32,59.95203837
space,1.136,space,0.968,,,ms_large,0,178,178,178,1,1.129,0.1,False,None,D06,r2,2021-05-02_16h39.18.285,subsecond_timing_v2,2021.1.2,Win32,59.95203837
space,1.168,space,0.936,,,ms_large,0,179,179,179,1,0.953,0.1,False,None,D06,r2,2021-05-02_16h39.18.285,subsecond_timing_v2,2021.1.2,Win32,59.95203837
space,1.068,space,1.002,,,ms_large,0,180,180,180,1,0.918,0.3,False,None,D06,r2,2021-05-02_16h39.18.285,subsecond_timing_v2,2021.1.2,Win32,59.95203837
space,1.068,space,1.102,,,ms_large,0,181,181,181,1,1.059,0.2,False,None,D06,r2,2021-05-02_16h39.18.285,subsecond_timing_v2,2021.1.2,Win32,59.95203837
space,0.85,space,0.986,,,ms_large,0,182,182,182,1,1.165,0.1,False,None,D06,r2,2021-05-02_16h39.18.285,subsecond_timing_v2,2021.1.2,Win32,59.95203837
space,1.085,space,1.168,,,ms_large,0,183,183,183,1,1.024,0.3,False,None,D06,r2,2021-05-02_16h39.18.285,subsecond_timing_v2,2021.1.2,Win32,59.95203837
space,1.07,space,1.156,,,ms_large,0,184,184,184,1,1.2,0.2,False,None,D06,r2,2021-05-02_16h39.18.285,subsecond_timing_v2,2021.1.2,Win32,59.95203837
space,1.319,space,0.919,,,ms_large,0,185,185,185,1,0.882,0.3,False,None,D06,r2,2021-05-02_16h39.18.285,subsecond_timing_v2,2021.1.2,Win32,59.95203837
space,1.02,space,1.155,,,ms_large,0,186,186,186,1,1.129,0.3,False,None,D06,r2,2021-05-02_16h39.18.285,subsecond_timing_v2,2021.1.2,Win32,59.95203837
space,1.237,space,1.002,,,ms_large,0,187,187,187,1,0.953,0.1,False,None,D06,r2,2021-05-02_16h39.18.285,subsecond_timing_v2,2021.1.2,Win32,59.95203837
space,0.968,space,0.772,,,ms_large,0,188,188,188,1,0.988,0.1,False,None,D06,r2,2021-05-02_16h39.18.285,subsecond_timing_v2,2021.1.2,Win32,59.95203837
space,1.12,space,1.134,,,ms_large,0,189,189,189,1,0.918,0.3,False,None,D06,r2,2021-05-02_16h39.18.285,subsecond_timing_v2,2021.1.2,Win32,59.95203837
space,1.102,space,0.969,,,ms_large,0,190,190,190,1,1.059,0.2,False,None,D06,r2,2021-05-02_16h39.18.285,subsecond_timing_v2,2021.1.2,Win32,59.95203837
space,1.838,space,0.973,,,ms_large,0,191,191,191,1,0.847,0.3,False,None,D06,r2,2021-05-02_16h39.18.285,subsecond_timing_v2,2021.1.2,Win32,59.95203837
space,0.916,space,0.901,,,ms_large,0,192,192,192,1,1.094,0.3,False,None,D06,r2,2021-05-02_16h39.18.285,subsecond_timing_v2,2021.1.2,Win32,59.95203837
space,0.869,space,0.751,,,ms_large,0,193,193,193,1,0.847,0.1,False,None,D06,r2,2021-05-02_16h39.18.285,subsecond_timing_v2,2021.1.2,Win32,59.95203837
space,0.916,space,0.919,,,ms_large,0,194,194,194,1,1.2,0.2,False,None,D06,r2,2021-05-02_16h39.18.285,subsecond_timing_v2,2021.1.2,Win32,59.95203837
space,1.086,space,0.818,,,ms_large,0,195,195,195,1,0.918,0.3,False,None,D06,r2,2021-05-02_16h39.18.285,subsecond_timing_v2,2021.1.2,Win32,59.95203837
space,0.967,space,1.018,,,ms_large,0,196,196,196,1,1.024,0.2,False,None,D06,r2,2021-05-02_16h39.18.285,subsecond_timing_v2,2021.1.2,Win32,59.95203837
space,1.019,space,1.084,,,ms_large,0,197,197,197,1,1.094,0.1,False,None,D06,r2,2021-05-02_16h39.18.285,subsecond_timing_v2,2021.1.2,Win32,59.95203837
space,1.119,space,1.02,,,ms_large,0,198,198,198,1,0.953,0.1,False,None,D06,r2,2021-05-02_16h39.18.285,subsecond_timing_v2,2021.1.2,Win32,59.95203837
space,1.052,space,1.051,,,ms_large,0,199,199,199,1,1.129,0.3,False,None,D06,r2,2021-05-02_16h39.18.285,subsecond_timing_v2,2021.1.2,Win32,59.95203837
space,1.068,space,0.969,,,ms_large,0,200,200,200,1,0.988,0.1,False,None,D06,r2,2021-05-02_16h39.18.285,subsecond_timing_v2,2021.1.2,Win32,59.95203837
space,1.186,space,0.94,,,ms_large,0,201,201,201,1,0.882,0.3,False,None,D06,r2,2021-05-02_16h39.18.285,subsecond_timing_v2,2021.1.2,Win32,59.95203837
space,0.985,space,0.941,,,ms_large,0,202,202,202,1,1.059,0.3,False,None,D06,r2,2021-05-02_16h39.18.285,subsecond_timing_v2,2021.1.2,Win32,59.95203837
space,0.987,space,1.108,,,ms_large,0,203,203,203,1,1.165,0.2,False,None,D06,r2,2021-05-02_16h39.18.285,subsecond_timing_v2,2021.1.2,Win32,59.95203837
space,1.253,space,1.056,,,ms_large,0,204,204,204,1,0.953,0.2,False,None,D06,r2,2021-05-02_16h39.18.285,subsecond_timing_v2,2021.1.2,Win32,59.95203837
space,1.15,space,1.14,,,ms_large,0,205,205,205,1,1.094,0.3,False,None,D06,r2,2021-05-02_16h39.18.285,subsecond_timing_v2,2021.1.2,Win32,59.95203837
space,1.169,space,1.22,,,ms_large,0,206,206,206,1,1.2,0.2,False,None,D06,r2,2021-05-02_16h39.18.285,subsecond_timing_v2,2021.1.2,Win32,59.95203837
space,1.167,space,1.069,,,ms_large,0,207,207,207,1,1.024,0.1,False,None,D06,r2,2021-05-02_16h39.18.285,subsecond_timing_v2,2021.1.2,Win32,59.95203837
space,1.352,space,0.951,,,ms_large,0,208,208,208,1,0.847,0.3,False,None,D06,r2,2021-05-02_16h39.18.285,subsecond_timing_v2,2021.1.2,Win32,59.95203837
space,1.038,space,1.037,,,ms_large,0,209,209,209,1,1.129,0.2,False,None,D06,r2,2021-05-02_16h39.18.285,subsecond_timing_v2,2021.1.2,Win32,59.95203837
space,1.069,space,1.085,,,ms_large,0,210,210,210,1,1.165,0.3,False,None,D06,r2,2021-05-02_16h39.18.285,subsecond_timing_v2,2021.1.2,Win32,59.95203837
space,1.185,space,0.904,,,ms_large,0,211,211,211,1,0.988,0.3,False,None,D06,r2,2021-05-02_16h39.18.285,subsecond_timing_v2,2021.1.2,Win32,59.95203837
space,1.236,space,0.918,,,ms_large,0,212,212,212,1,0.882,0.3,False,None,D06,r2,2021-05-02_16h39.18.285,subsecond_timing_v2,2021.1.2,Win32,59.95203837
space,1.152,space,0.968,,,ms_large,0,213,213,213,1,1.059,0.2,False,None,D06,r2,2021-05-02_16h39.18.285,subsecond_timing_v2,2021.1.2,Win32,59.95203837
space,1.152,space,0.851,,,ms_large,0,214,214,214,1,0.918,0.3,False,None,D06,r2,2021-05-02_16h39.18.285,subsecond_timing_v2,2021.1.2,Win32,59.95203837
space,1.035,space,0.853,,,ms_large,0,215,215,215,1,0.953,0.2,False,None,D06,r2,2021-05-02_16h39.18.285,subsecond_timing_v2,2021.1.2,Win32,59.95203837
space,1.068,space,0.817,,,ms_large,0,216,216,216,1,0.847,0.3,False,None,D06,r2,2021-05-02_16h39.18.285,subsecond_timing_v2,2021.1.2,Win32,59.95203837
space,1.169,space,0.919,,,ms_large,0,217,217,217,1,1.024,0.1,False,None,D06,r2,2021-05-02_16h39.18.285,subsecond_timing_v2,2021.1.2,Win32,59.95203837
space,1.152,space,0.971,,,ms_large,0,218,218,218,1,1.059,0.3,False,None,D06,r2,2021-05-02_16h39.18.285,subsecond_timing_v2,2021.1.2,Win32,59.95203837
space,1.073,space,0.953,,,ms_large,0,219,219,219,1,0.988,0.1,False,None,D06,r2,2021-05-02_16h39.18.285,subsecond_timing_v2,2021.1.2,Win32,59.95203837
space,1.019,space,1.036,,,ms_large,0,220,220,220,1,1.094,0.1,False,None,D06,r2,2021-05-02_16h39.18.285,subsecond_timing_v2,2021.1.2,Win32,59.95203837
space,1.15,space,1.034,,,ms_large,0,221,221,221,1,0.918,0.3,False,None,D06,r2,2021-05-02_16h39.18.285,subsecond_timing_v2,2021.1.2,Win32,59.95203837
space,1.303,space,0.685,,,ms_large,0,222,222,222,1,0.882,0.1,False,None,D06,r2,2021-05-02_16h39.18.285,subsecond_timing_v2,2021.1.2,Win32,59.95203837
space,0.906,space,1.205,,,ms_large,0,223,223,223,1,1.129,0.2,False,None,D06,r2,2021-05-02_16h39.18.285,subsecond_timing_v2,2021.1.2,Win32,59.95203837
space,0.937,space,1.135,,,ms_large,0,224,224,224,1,1.165,0.3,False,None,D06,r2,2021-05-02_16h39.18.285,subsecond_timing_v2,2021.1.2,Win32,59.95203837
space,1.352,space,1.156,,,ms_large,0,225,225,225,1,1.2,0.3,False,None,D06,r2,2021-05-02_16h39.18.285,subsecond_timing_v2,2021.1.2,Win32,59.95203837
