key_resp_start.keys,key_resp_start.rt,key_resp_stop.keys,key_resp_stop.rt,feedback_range,hit,stimulus_range,trials.thisRepN,trials.thisTrialN,trials.thisN,trials.thisIndex,trials.ran,stimulus_duration,onset,feedback,feedback_range_fromfile,participant,session,date,expName,psychopyVersion,OS,frameRate
space,0.834685,space,1.03521,0.3,TRUE,Training,0,0,0,0,1,1,0.2,True,0.3,D08,r2,2021-04-30_07h40.28.282,subsecond_timing_v2,2021.1.2,Win32,59.86590038
space,1.087135,space,1.05182,0.3,FALSE,Training,0,1,1,1,1,0.75,0.2,True,0.3,D08,r2,2021-04-30_07h40.28.282,subsecond_timing_v2,2021.1.2,Win32,59.86590038
space,0.851475,space,1.12509,0.3,FALSE,Training,0,2,2,2,1,0.5,0.2,True,0.3,D08,r2,2021-04-30_07h40.28.282,subsecond_timing_v2,2021.1.2,Win32,59.86590038
space,0.75259,space,1.00961,0.3,FALSE,Training,0,3,3,3,1,0.5,0.3,True,0.3,D08,r2,2021-04-30_07h40.28.282,subsecond_timing_v2,2021.1.2,Win32,59.86590038
space,0.668315,space,0.89347,0.3,TRUE,Training,0,4,4,4,1,0.75,0.3,True,0.3,D08,r2,2021-04-30_07h40.28.282,subsecond_timing_v2,2021.1.2,Win32,59.86590038
space,0.628615,space,1.017785,0.3,TRUE,Training,0,5,5,5,1,1,0.3,True,0.3,D08,r2,2021-04-30_07h40.28.282,subsecond_timing_v2,2021.1.2,Win32,59.86590038
space,0.584875,space,0.806885,,,ms_large,0,6,6,6,1,1.165,0.2,False,None,D08,r2,2021-04-30_07h40.28.282,subsecond_timing_v2,2021.1.2,Win32,59.86590038
space,0.999415,space,1.089305,,,ms_large,0,7,7,7,1,1.094,0.3,False,None,D08,r2,2021-04-30_07h40.28.282,subsecond_timing_v2,2021.1.2,Win32,59.86590038
space,1.007425,space,1.256665,,,ms_large,0,8,8,8,1,1.2,0.3,False,None,D08,r2,2021-04-30_07h40.28.282,subsecond_timing_v2,2021.1.2,Win32,59.86590038
space,0.770915,space,1.188185,,,ms_large,0,9,9,9,1,1.024,0.1,False,None,D08,r2,2021-04-30_07h40.28.282,subsecond_timing_v2,2021.1.2,Win32,59.86590038
space,0.688605,space,1.24393,,,ms_large,0,10,10,10,1,0.953,0.3,False,None,D08,r2,2021-04-30_07h40.28.282,subsecond_timing_v2,2021.1.2,Win32,59.86590038
space,0.63865,space,1.38763,,,ms_large,0,11,11,11,1,0.847,0.1,False,None,D08,r2,2021-04-30_07h40.28.282,subsecond_timing_v2,2021.1.2,Win32,59.86590038
space,0.609315,space,1.33955,,,ms_large,0,12,12,12,1,0.882,0.3,False,None,D08,r2,2021-04-30_07h40.28.282,subsecond_timing_v2,2021.1.2,Win32,59.86590038
space,0.585095,space,1.356475,,,ms_large,0,13,13,13,1,1.129,0.1,False,None,D08,r2,2021-04-30_07h40.28.282,subsecond_timing_v2,2021.1.2,Win32,59.86590038
space,0.823695,space,1.15758,,,ms_large,0,14,14,14,1,1.059,0.3,False,None,D08,r2,2021-04-30_07h40.28.282,subsecond_timing_v2,2021.1.2,Win32,59.86590038
space,0.611805,space,1.34936,,,ms_large,0,15,15,15,1,0.918,0.3,False,None,D08,r2,2021-04-30_07h40.28.282,subsecond_timing_v2,2021.1.2,Win32,59.86590038
space,0.90418,space,1.25426,,,ms_large,0,16,16,16,1,0.988,0.1,False,None,D08,r2,2021-04-30_07h40.28.282,subsecond_timing_v2,2021.1.2,Win32,59.86590038
space,0.60246,space,1.252,,,ms_large,0,17,17,17,1,0.953,0.2,False,None,D08,r2,2021-04-30_07h40.28.282,subsecond_timing_v2,2021.1.2,Win32,59.86590038
space,0.52577,space,1.561345,,,ms_large,0,18,18,18,1,1.129,0.3,False,None,D08,r2,2021-04-30_07h40.28.282,subsecond_timing_v2,2021.1.2,Win32,59.86590038
space,0.589155,space,1.553715,,,ms_large,0,19,19,19,1,0.988,0.2,False,None,D08,r2,2021-04-30_07h40.28.282,subsecond_timing_v2,2021.1.2,Win32,59.86590038
space,0.78549,space,1.56576,,,ms_large,0,20,20,20,1,1.024,0.1,False,None,D08,r2,2021-04-30_07h40.28.282,subsecond_timing_v2,2021.1.2,Win32,59.86590038
space,1.155915,space,1.370205,,,ms_large,0,21,21,21,1,1.165,0.1,False,None,D08,r2,2021-04-30_07h40.28.282,subsecond_timing_v2,2021.1.2,Win32,59.86590038
space,0.55202,space,1.78487,,,ms_large,0,22,22,22,1,1.2,0.1,False,None,D08,r2,2021-04-30_07h40.28.282,subsecond_timing_v2,2021.1.2,Win32,59.86590038
space,0.860185,space,2.151575,,,ms_large,0,23,23,23,1,0.882,0.2,False,None,D08,r2,2021-04-30_07h40.28.282,subsecond_timing_v2,2021.1.2,Win32,59.86590038
space,0.691435,space,1.568205,,,ms_large,0,24,24,24,1,0.847,0.3,False,None,D08,r2,2021-04-30_07h40.28.282,subsecond_timing_v2,2021.1.2,Win32,59.86590038
space,0.579565,space,1.63542,,,ms_large,0,25,25,25,1,1.094,0.1,False,None,D08,r2,2021-04-30_07h40.28.282,subsecond_timing_v2,2021.1.2,Win32,59.86590038
space,0.589325,space,1.610815,,,ms_large,0,26,26,26,1,1.059,0.1,False,None,D08,r2,2021-04-30_07h40.28.282,subsecond_timing_v2,2021.1.2,Win32,59.86590038
space,0.686045,space,1.699325,,,ms_large,0,27,27,27,1,0.918,0.3,False,None,D08,r2,2021-04-30_07h40.28.282,subsecond_timing_v2,2021.1.2,Win32,59.86590038
space,0.67335,space,1.50927,,,ms_large,0,28,28,28,1,0.988,0.2,False,None,D08,r2,2021-04-30_07h40.28.282,subsecond_timing_v2,2021.1.2,Win32,59.86590038
space,0.58267,space,1.57359,,,ms_large,0,29,29,29,1,1.165,0.2,False,None,D08,r2,2021-04-30_07h40.28.282,subsecond_timing_v2,2021.1.2,Win32,59.86590038
space,0.611715,space,1.600875,,,ms_large,0,30,30,30,1,1.129,0.1,False,None,D08,r2,2021-04-30_07h40.28.282,subsecond_timing_v2,2021.1.2,Win32,59.86590038
space,0.81891,space,1.684635,,,ms_large,0,31,31,31,1,1.059,0.1,False,None,D08,r2,2021-04-30_07h40.28.282,subsecond_timing_v2,2021.1.2,Win32,59.86590038
space,0.623725,space,1.94975,,,ms_large,0,32,32,32,1,0.918,0.3,False,None,D08,r2,2021-04-30_07h40.28.282,subsecond_timing_v2,2021.1.2,Win32,59.86590038
space,0.532935,space,1.590855,,,ms_large,0,33,33,33,1,1.2,0.3,False,None,D08,r2,2021-04-30_07h40.28.282,subsecond_timing_v2,2021.1.2,Win32,59.86590038
space,0.67757,space,1.6375,,,ms_large,0,34,34,34,1,0.847,0.1,False,None,D08,r2,2021-04-30_07h40.28.282,subsecond_timing_v2,2021.1.2,Win32,59.86590038
space,1.02772,space,1.827725,,,ms_large,0,35,35,35,1,1.024,0.1,False,None,D08,r2,2021-04-30_07h40.28.282,subsecond_timing_v2,2021.1.2,Win32,59.86590038
space,0.716435,space,2.22762,,,ms_large,0,36,36,36,1,0.882,0.1,False,None,D08,r2,2021-04-30_07h40.28.282,subsecond_timing_v2,2021.1.2,Win32,59.86590038
space,0.648805,space,1.30397,,,ms_large,0,37,37,37,1,1.094,0.2,False,None,D08,r2,2021-04-30_07h40.28.282,subsecond_timing_v2,2021.1.2,Win32,59.86590038
space,0.85759,space,1.532825,,,ms_large,0,38,38,38,1,0.953,0.1,False,None,D08,r2,2021-04-30_07h40.28.282,subsecond_timing_v2,2021.1.2,Win32,59.86590038
space,0.56887,space,1.64037,,,ms_large,0,39,39,39,1,1.165,0.2,False,None,D08,r2,2021-04-30_07h40.28.282,subsecond_timing_v2,2021.1.2,Win32,59.86590038
space,0.71022,space,1.63715,,,ms_large,0,40,40,40,1,0.953,0.1,False,None,D08,r2,2021-04-30_07h40.28.282,subsecond_timing_v2,2021.1.2,Win32,59.86590038
space,0.78479,space,1.4209,,,ms_large,0,41,41,41,1,0.988,0.1,False,None,D08,r2,2021-04-30_07h40.28.282,subsecond_timing_v2,2021.1.2,Win32,59.86590038
space,0.67466,space,1.52057,,,ms_large,0,42,42,42,1,1.094,0.1,False,None,D08,r2,2021-04-30_07h40.28.282,subsecond_timing_v2,2021.1.2,Win32,59.86590038
space,0.75532,space,1.559205,,,ms_large,0,43,43,43,1,1.129,0.3,False,None,D08,r2,2021-04-30_07h40.28.282,subsecond_timing_v2,2021.1.2,Win32,59.86590038
space,0.687285,space,1.57903,,,ms_large,0,44,44,44,1,0.882,0.2,False,None,D08,r2,2021-04-30_07h40.28.282,subsecond_timing_v2,2021.1.2,Win32,59.86590038
space,0.903175,space,1.5873,,,ms_large,0,45,45,45,1,1.2,0.1,False,None,D08,r2,2021-04-30_07h40.28.282,subsecond_timing_v2,2021.1.2,Win32,59.86590038
space,0.639255,space,1.668375,,,ms_large,0,46,46,46,1,1.024,0.1,False,None,D08,r2,2021-04-30_07h40.28.282,subsecond_timing_v2,2021.1.2,Win32,59.86590038
space,0.756465,space,1.722745,,,ms_large,0,47,47,47,1,0.918,0.2,False,None,D08,r2,2021-04-30_07h40.28.282,subsecond_timing_v2,2021.1.2,Win32,59.86590038
space,0.630515,space,1.516255,,,ms_large,0,48,48,48,1,0.847,0.1,False,None,D08,r2,2021-04-30_07h40.28.282,subsecond_timing_v2,2021.1.2,Win32,59.86590038
space,0.815975,space,1.48038,,,ms_large,0,49,49,49,1,1.059,0.3,False,None,D08,r2,2021-04-30_07h40.28.282,subsecond_timing_v2,2021.1.2,Win32,59.86590038
space,1.052175,space,1.68729,,,ms_large,0,50,50,50,1,0.953,0.2,False,None,D08,r2,2021-04-30_07h40.28.282,subsecond_timing_v2,2021.1.2,Win32,59.86590038
space,1.443425,space,2.263965,,,ms_large,0,51,51,51,1,1.024,0.3,False,None,D08,r2,2021-04-30_07h40.28.282,subsecond_timing_v2,2021.1.2,Win32,59.86590038
space,0.77421,space,2.339145,,,ms_large,0,52,52,52,1,1.165,0.3,False,None,D08,r2,2021-04-30_07h40.28.282,subsecond_timing_v2,2021.1.2,Win32,59.86590038
space,0.789,space,2.72059,,,ms_large,0,53,53,53,1,0.847,0.3,False,None,D08,r2,2021-04-30_07h40.28.282,subsecond_timing_v2,2021.1.2,Win32,59.86590038
space,0.66887,space,2.23756,,,ms_large,0,54,54,54,1,1.2,0.1,False,None,D08,r2,2021-04-30_07h40.28.282,subsecond_timing_v2,2021.1.2,Win32,59.86590038
space,0.645165,space,1.93671,,,ms_large,0,55,55,55,1,0.988,0.3,False,None,D08,r2,2021-04-30_07h40.28.282,subsecond_timing_v2,2021.1.2,Win32,59.86590038
space,0.668515,space,1.78487,,,ms_large,0,56,56,56,1,0.882,0.1,False,None,D08,r2,2021-04-30_07h40.28.282,subsecond_timing_v2,2021.1.2,Win32,59.86590038
space,0.70407,space,2.10772,,,ms_large,0,57,57,57,1,1.059,0.1,False,None,D08,r2,2021-04-30_07h40.28.282,subsecond_timing_v2,2021.1.2,Win32,59.86590038
space,0.575915,space,2.120665,,,ms_large,0,58,58,58,1,1.094,0.1,False,None,D08,r2,2021-04-30_07h40.28.282,subsecond_timing_v2,2021.1.2,Win32,59.86590038
space,0.78961,space,2.102735,,,ms_large,0,59,59,59,1,1.129,0.3,False,None,D08,r2,2021-04-30_07h40.28.282,subsecond_timing_v2,2021.1.2,Win32,59.86590038
space,0.855935,space,2.08857,,,ms_large,0,60,60,60,1,0.918,0.3,False,None,D08,r2,2021-04-30_07h40.28.282,subsecond_timing_v2,2021.1.2,Win32,59.86590038
space,0.795335,space,2.102085,,,ms_large,0,61,61,61,1,1.129,0.1,False,None,D08,r2,2021-04-30_07h40.28.282,subsecond_timing_v2,2021.1.2,Win32,59.86590038
space,0.785675,space,1.968775,,,ms_large,0,62,62,62,1,1.165,0.3,False,None,D08,r2,2021-04-30_07h40.28.282,subsecond_timing_v2,2021.1.2,Win32,59.86590038
space,1.07178,space,1.90168,,,ms_large,0,63,63,63,1,0.953,0.2,False,None,D08,r2,2021-04-30_07h40.28.282,subsecond_timing_v2,2021.1.2,Win32,59.86590038
space,0.766135,space,1.720975,,,ms_large,0,64,64,64,1,1.094,0.2,False,None,D08,r2,2021-04-30_07h40.28.282,subsecond_timing_v2,2021.1.2,Win32,59.86590038
space,0.660895,space,1.594455,,,ms_large,0,65,65,65,1,0.882,0.1,False,None,D08,r2,2021-04-30_07h40.28.282,subsecond_timing_v2,2021.1.2,Win32,59.86590038
space,0.63737,space,1.586325,,,ms_large,0,66,66,66,1,0.918,0.2,False,None,D08,r2,2021-04-30_07h40.28.282,subsecond_timing_v2,2021.1.2,Win32,59.86590038
space,0.673235,space,1.662595,,,ms_large,0,67,67,67,1,0.988,0.1,False,None,D08,r2,2021-04-30_07h40.28.282,subsecond_timing_v2,2021.1.2,Win32,59.86590038
space,0.81145,space,1.49485,,,ms_large,0,68,68,68,1,1.024,0.1,False,None,D08,r2,2021-04-30_07h40.28.282,subsecond_timing_v2,2021.1.2,Win32,59.86590038
space,0.719235,space,2.184805,,,ms_large,0,69,69,69,1,1.2,0.1,False,None,D08,r2,2021-04-30_07h40.28.282,subsecond_timing_v2,2021.1.2,Win32,59.86590038
space,0.653085,space,1.658905,,,ms_large,0,70,70,70,1,1.059,0.1,False,None,D08,r2,2021-04-30_07h40.28.282,subsecond_timing_v2,2021.1.2,Win32,59.86590038
space,0.65201,space,1.504145,,,ms_large,0,71,71,71,1,0.847,0.1,False,None,D08,r2,2021-04-30_07h40.28.282,subsecond_timing_v2,2021.1.2,Win32,59.86590038
space,0.57229,space,1.874545,,,ms_large,0,72,72,72,1,1.094,0.2,False,None,D08,r2,2021-04-30_07h40.28.282,subsecond_timing_v2,2021.1.2,Win32,59.86590038
space,0.585305,space,1.50116,,,ms_large,0,73,73,73,1,0.918,0.3,False,None,D08,r2,2021-04-30_07h40.28.282,subsecond_timing_v2,2021.1.2,Win32,59.86590038
space,0.613735,space,1.670435,,,ms_large,0,74,74,74,1,0.953,0.2,False,None,D08,r2,2021-04-30_07h40.28.282,subsecond_timing_v2,2021.1.2,Win32,59.86590038
space,0.62428,space,1.528885,,,ms_large,0,75,75,75,1,0.882,0.2,False,None,D08,r2,2021-04-30_07h40.28.282,subsecond_timing_v2,2021.1.2,Win32,59.86590038
space,0.746435,space,1.81153,,,ms_large,0,76,76,76,1,0.988,0.3,False,None,D08,r2,2021-04-30_07h40.28.282,subsecond_timing_v2,2021.1.2,Win32,59.86590038
space,0.543855,space,2.029895,,,ms_large,0,77,77,77,1,1.2,0.1,False,None,D08,r2,2021-04-30_07h40.28.282,subsecond_timing_v2,2021.1.2,Win32,59.86590038
space,0.52035,space,2.02067,,,ms_large,0,78,78,78,1,1.024,0.2,False,None,D08,r2,2021-04-30_07h40.28.282,subsecond_timing_v2,2021.1.2,Win32,59.86590038
space,0.711035,space,1.665695,,,ms_large,0,79,79,79,1,1.129,0.1,False,None,D08,r2,2021-04-30_07h40.28.282,subsecond_timing_v2,2021.1.2,Win32,59.86590038
space,0.726605,space,1.78859,,,ms_large,0,80,80,80,1,1.165,0.3,False,None,D08,r2,2021-04-30_07h40.28.282,subsecond_timing_v2,2021.1.2,Win32,59.86590038
space,1.302495,space,1.831945,,,ms_large,0,81,81,81,1,1.059,0.2,False,None,D08,r2,2021-04-30_07h40.28.282,subsecond_timing_v2,2021.1.2,Win32,59.86590038
space,0.65299,space,1.720385,,,ms_large,0,82,82,82,1,0.847,0.1,False,None,D08,r2,2021-04-30_07h40.28.282,subsecond_timing_v2,2021.1.2,Win32,59.86590038
space,0.67455,space,1.713335,,,ms_large,0,83,83,83,1,1.024,0.1,False,None,D08,r2,2021-04-30_07h40.28.282,subsecond_timing_v2,2021.1.2,Win32,59.86590038
space,0.71624,space,1.451655,,,ms_large,0,84,84,84,1,1.059,0.3,False,None,D08,r2,2021-04-30_07h40.28.282,subsecond_timing_v2,2021.1.2,Win32,59.86590038
space,0.51872,space,1.765375,,,ms_large,0,85,85,85,1,0.918,0.1,False,None,D08,r2,2021-04-30_07h40.28.282,subsecond_timing_v2,2021.1.2,Win32,59.86590038
space,0.65371,space,1.85703,,,ms_large,0,86,86,86,1,1.165,0.1,False,None,D08,r2,2021-04-30_07h40.28.282,subsecond_timing_v2,2021.1.2,Win32,59.86590038
space,0.86995,space,1.805185,,,ms_large,0,87,87,87,1,0.953,0.1,False,None,D08,r2,2021-04-30_07h40.28.282,subsecond_timing_v2,2021.1.2,Win32,59.86590038
space,0.687985,space,1.7707,,,ms_large,0,88,88,88,1,0.882,0.1,False,None,D08,r2,2021-04-30_07h40.28.282,subsecond_timing_v2,2021.1.2,Win32,59.86590038
space,0.5849,space,1.646275,,,ms_large,0,89,89,89,1,0.847,0.1,False,None,D08,r2,2021-04-30_07h40.28.282,subsecond_timing_v2,2021.1.2,Win32,59.86590038
space,0.648995,space,1.54441,,,ms_large,0,90,90,90,1,1.094,0.1,False,None,D08,r2,2021-04-30_07h40.28.282,subsecond_timing_v2,2021.1.2,Win32,59.86590038
space,0.692325,space,1.44706,,,ms_large,0,91,91,91,1,1.129,0.2,False,None,D08,r2,2021-04-30_07h40.28.282,subsecond_timing_v2,2021.1.2,Win32,59.86590038
space,0.58325,space,1.45522,,,ms_large,0,92,92,92,1,1.2,0.1,False,None,D08,r2,2021-04-30_07h40.28.282,subsecond_timing_v2,2021.1.2,Win32,59.86590038
space,0.595355,space,1.7389,,,ms_large,0,93,93,93,1,0.988,0.1,False,None,D08,r2,2021-04-30_07h40.28.282,subsecond_timing_v2,2021.1.2,Win32,59.86590038
space,0.56148,space,1.75921,,,ms_large,0,94,94,94,1,1.129,0.3,False,None,D08,r2,2021-04-30_07h40.28.282,subsecond_timing_v2,2021.1.2,Win32,59.86590038
space,0.446965,space,2.098945,,,ms_large,0,95,95,95,1,1.165,0.2,False,None,D08,r2,2021-04-30_07h40.28.282,subsecond_timing_v2,2021.1.2,Win32,59.86590038
space,0.661095,space,1.47588,,,ms_large,0,96,96,96,1,1.024,0.3,False,None,D08,r2,2021-04-30_07h40.28.282,subsecond_timing_v2,2021.1.2,Win32,59.86590038
space,0.619545,space,1.62912,,,ms_large,0,97,97,97,1,1.094,0.1,False,None,D08,r2,2021-04-30_07h40.28.282,subsecond_timing_v2,2021.1.2,Win32,59.86590038
space,0.629905,space,1.4552,,,ms_large,0,98,98,98,1,1.059,0.2,False,None,D08,r2,2021-04-30_07h40.28.282,subsecond_timing_v2,2021.1.2,Win32,59.86590038
space,0.684835,space,1.61314,,,ms_large,0,99,99,99,1,1.2,0.1,False,None,D08,r2,2021-04-30_07h40.28.282,subsecond_timing_v2,2021.1.2,Win32,59.86590038
space,0.674685,space,1.572855,,,ms_large,0,100,100,100,1,0.882,0.3,False,None,D08,r2,2021-04-30_07h40.28.282,subsecond_timing_v2,2021.1.2,Win32,59.86590038
space,0.77726,space,1.57549,,,ms_large,0,101,101,101,1,0.918,0.3,False,None,D08,r2,2021-04-30_07h40.28.282,subsecond_timing_v2,2021.1.2,Win32,59.86590038
space,0.70213,space,1.307265,,,ms_large,0,102,102,102,1,0.988,0.3,False,None,D08,r2,2021-04-30_07h40.28.282,subsecond_timing_v2,2021.1.2,Win32,59.86590038
space,0.538425,space,1.72661,,,ms_large,0,103,103,103,1,0.847,0.1,False,None,D08,r2,2021-04-30_07h40.28.282,subsecond_timing_v2,2021.1.2,Win32,59.86590038
space,0.7163,space,1.49176,,,ms_large,0,104,104,104,1,0.953,0.3,False,None,D08,r2,2021-04-30_07h40.28.282,subsecond_timing_v2,2021.1.2,Win32,59.86590038
space,0.73299,space,1.68443,,,ms_large,0,105,105,105,1,0.847,0.3,False,None,D08,r2,2021-04-30_07h40.28.282,subsecond_timing_v2,2021.1.2,Win32,59.86590038
space,0.63531,space,2.21619,,,ms_large,0,106,106,106,1,1.094,0.3,False,None,D08,r2,2021-04-30_07h40.28.282,subsecond_timing_v2,2021.1.2,Win32,59.86590038
space,0.70224,space,2.29658,,,ms_large,0,107,107,107,1,1.129,0.3,False,None,D08,r2,2021-04-30_07h40.28.282,subsecond_timing_v2,2021.1.2,Win32,59.86590038
space,0.633,space,1.787295,,,ms_large,0,108,108,108,1,0.882,0.3,False,None,D08,r2,2021-04-30_07h40.28.282,subsecond_timing_v2,2021.1.2,Win32,59.86590038
space,0.5518,space,1.541675,,,ms_large,0,109,109,109,1,0.953,0.2,False,None,D08,r2,2021-04-30_07h40.28.282,subsecond_timing_v2,2021.1.2,Win32,59.86590038
space,0.568155,space,1.754105,,,ms_large,0,110,110,110,1,0.988,0.1,False,None,D08,r2,2021-04-30_07h40.28.282,subsecond_timing_v2,2021.1.2,Win32,59.86590038
space,1.10835,space,2.036995,,,ms_large,0,111,111,111,1,1.165,0.3,False,None,D08,r2,2021-04-30_07h40.28.282,subsecond_timing_v2,2021.1.2,Win32,59.86590038
space,0.742125,space,2.080295,,,ms_large,0,112,112,112,1,0.918,0.2,False,None,D08,r2,2021-04-30_07h40.28.282,subsecond_timing_v2,2021.1.2,Win32,59.86590038
space,0.59173,space,1.887745,,,ms_large,0,113,113,113,1,1.059,0.3,False,None,D08,r2,2021-04-30_07h40.28.282,subsecond_timing_v2,2021.1.2,Win32,59.86590038
space,0.42398,space,2.129965,,,ms_large,0,114,114,114,1,1.2,0.2,False,None,D08,r2,2021-04-30_07h40.28.282,subsecond_timing_v2,2021.1.2,Win32,59.86590038
space,0.4601,space,1.963155,,,ms_large,0,115,115,115,1,1.024,0.3,False,None,D08,r2,2021-04-30_07h40.28.282,subsecond_timing_v2,2021.1.2,Win32,59.86590038
space,0.522025,space,2.029395,,,ms_large,0,116,116,116,1,1.129,0.3,False,None,D08,r2,2021-04-30_07h40.28.282,subsecond_timing_v2,2021.1.2,Win32,59.86590038
space,0.69268,space,1.82057,,,ms_large,0,117,117,117,1,1.2,0.3,False,None,D08,r2,2021-04-30_07h40.28.282,subsecond_timing_v2,2021.1.2,Win32,59.86590038
space,0.550225,space,1.47173,,,ms_large,0,118,118,118,1,1.024,0.3,False,None,D08,r2,2021-04-30_07h40.28.282,subsecond_timing_v2,2021.1.2,Win32,59.86590038
space,0.81627,space,1.50399,,,ms_large,0,119,119,119,1,1.094,0.1,False,None,D08,r2,2021-04-30_07h40.28.282,subsecond_timing_v2,2021.1.2,Win32,59.86590038
space,0.419095,space,1.303775,,,ms_large,0,120,120,120,1,1.059,0.1,False,None,D08,r2,2021-04-30_07h40.28.282,subsecond_timing_v2,2021.1.2,Win32,59.86590038
space,0.452065,space,2.05401,,,ms_large,0,121,121,121,1,0.988,0.2,False,None,D08,r2,2021-04-30_07h40.28.282,subsecond_timing_v2,2021.1.2,Win32,59.86590038
space,1.615585,space,1.43714,,,ms_large,0,122,122,122,1,0.847,0.3,False,None,D08,r2,2021-04-30_07h40.28.282,subsecond_timing_v2,2021.1.2,Win32,59.86590038
space,0.61277,space,1.73921,,,ms_large,0,123,123,123,1,0.953,0.2,False,None,D08,r2,2021-04-30_07h40.28.282,subsecond_timing_v2,2021.1.2,Win32,59.86590038
space,0.64944,space,1.706925,,,ms_large,0,124,124,124,1,0.918,0.2,False,None,D08,r2,2021-04-30_07h40.28.282,subsecond_timing_v2,2021.1.2,Win32,59.86590038
space,0.63896,space,1.59037,,,ms_large,0,125,125,125,1,1.165,0.2,False,None,D08,r2,2021-04-30_07h40.28.282,subsecond_timing_v2,2021.1.2,Win32,59.86590038
space,0.588645,space,1.488415,,,ms_large,0,126,126,126,1,0.882,0.3,False,None,D08,r2,2021-04-30_07h40.28.282,subsecond_timing_v2,2021.1.2,Win32,59.86590038
space,0.859025,space,1.905625,,,ms_large,0,127,127,127,1,0.882,0.2,False,None,D08,r2,2021-04-30_07h40.28.282,subsecond_timing_v2,2021.1.2,Win32,59.86590038
space,0.626715,space,1.751655,,,ms_large,0,128,128,128,1,1.094,0.2,False,None,D08,r2,2021-04-30_07h40.28.282,subsecond_timing_v2,2021.1.2,Win32,59.86590038
space,0.61872,space,1.935695,,,ms_large,0,129,129,129,1,1.024,0.3,False,None,D08,r2,2021-04-30_07h40.28.282,subsecond_timing_v2,2021.1.2,Win32,59.86590038
space,0.658285,space,1.538025,,,ms_large,0,130,130,130,1,0.847,0.1,False,None,D08,r2,2021-04-30_07h40.28.282,subsecond_timing_v2,2021.1.2,Win32,59.86590038
space,0.78548,space,1.61861,,,ms_large,0,131,131,131,1,1.2,0.1,False,None,D08,r2,2021-04-30_07h40.28.282,subsecond_timing_v2,2021.1.2,Win32,59.86590038
space,0.68523,space,1.30669,,,ms_large,0,132,132,132,1,1.059,0.3,False,None,D08,r2,2021-04-30_07h40.28.282,subsecond_timing_v2,2021.1.2,Win32,59.86590038
space,0.69295,space,1.699715,,,ms_large,0,133,133,133,1,0.918,0.1,False,None,D08,r2,2021-04-30_07h40.28.282,subsecond_timing_v2,2021.1.2,Win32,59.86590038
space,0.732625,space,1.63939,,,ms_large,0,134,134,134,1,1.129,0.3,False,None,D08,r2,2021-04-30_07h40.28.282,subsecond_timing_v2,2021.1.2,Win32,59.86590038
space,0.91461,space,1.595145,,,ms_large,0,135,135,135,1,1.165,0.2,False,None,D08,r2,2021-04-30_07h40.28.282,subsecond_timing_v2,2021.1.2,Win32,59.86590038
space,0.705325,space,1.484065,,,ms_large,0,136,136,136,1,0.953,0.1,False,None,D08,r2,2021-04-30_07h40.28.282,subsecond_timing_v2,2021.1.2,Win32,59.86590038
space,0.720815,space,1.501435,,,ms_large,0,137,137,137,1,0.988,0.3,False,None,D08,r2,2021-04-30_07h40.28.282,subsecond_timing_v2,2021.1.2,Win32,59.86590038
space,0.53695,space,1.677565,,,ms_large,0,138,138,138,1,0.847,0.1,False,None,D08,r2,2021-04-30_07h40.28.282,subsecond_timing_v2,2021.1.2,Win32,59.86590038
space,0.74299,space,1.59851,,,ms_large,0,139,139,139,1,0.882,0.1,False,None,D08,r2,2021-04-30_07h40.28.282,subsecond_timing_v2,2021.1.2,Win32,59.86590038
space,0.683365,space,1.625685,,,ms_large,0,140,140,140,1,0.988,0.3,False,None,D08,r2,2021-04-30_07h40.28.282,subsecond_timing_v2,2021.1.2,Win32,59.86590038
space,0.685485,space,1.726505,,,ms_large,0,141,141,141,1,0.953,0.1,False,None,D08,r2,2021-04-30_07h40.28.282,subsecond_timing_v2,2021.1.2,Win32,59.86590038
space,1.028165,space,1.951775,,,ms_large,0,142,142,142,1,1.165,0.2,False,None,D08,r2,2021-04-30_07h40.28.282,subsecond_timing_v2,2021.1.2,Win32,59.86590038
space,0.518955,space,1.91214,,,ms_large,0,143,143,143,1,1.059,0.3,False,None,D08,r2,2021-04-30_07h40.28.282,subsecond_timing_v2,2021.1.2,Win32,59.86590038
space,0.659125,space,1.921715,,,ms_large,0,144,144,144,1,1.2,0.1,False,None,D08,r2,2021-04-30_07h40.28.282,subsecond_timing_v2,2021.1.2,Win32,59.86590038
space,0.77129,space,1.718065,,,ms_large,0,145,145,145,1,1.094,0.2,False,None,D08,r2,2021-04-30_07h40.28.282,subsecond_timing_v2,2021.1.2,Win32,59.86590038
space,0.55409,space,1.93724,,,ms_large,0,146,146,146,1,1.024,0.3,False,None,D08,r2,2021-04-30_07h40.28.282,subsecond_timing_v2,2021.1.2,Win32,59.86590038
space,0.66903,space,1.64179,,,ms_large,0,147,147,147,1,0.918,0.2,False,None,D08,r2,2021-04-30_07h40.28.282,subsecond_timing_v2,2021.1.2,Win32,59.86590038
space,0.649705,space,1.787995,,,ms_large,0,148,148,148,1,1.129,0.3,False,None,D08,r2,2021-04-30_07h40.28.282,subsecond_timing_v2,2021.1.2,Win32,59.86590038
space,0.62821,space,1.906735,,,ms_large,0,149,149,149,1,1.165,0.3,False,None,D08,r2,2021-04-30_07h40.28.282,subsecond_timing_v2,2021.1.2,Win32,59.86590038
space,0.68021,space,1.548985,,,ms_large,0,150,150,150,1,0.882,0.1,False,None,D08,r2,2021-04-30_07h40.28.282,subsecond_timing_v2,2021.1.2,Win32,59.86590038
space,0.643515,space,1.634415,,,ms_large,0,151,151,151,1,1.2,0.2,False,None,D08,r2,2021-04-30_07h40.28.282,subsecond_timing_v2,2021.1.2,Win32,59.86590038
space,0.665755,space,1.32077,,,ms_large,0,152,152,152,1,0.953,0.3,False,None,D08,r2,2021-04-30_07h40.28.282,subsecond_timing_v2,2021.1.2,Win32,59.86590038
space,0.95743,space,1.884815,,,ms_large,0,153,153,153,1,1.059,0.3,False,None,D08,r2,2021-04-30_07h40.28.282,subsecond_timing_v2,2021.1.2,Win32,59.86590038
space,0.808045,space,1.787335,,,ms_large,0,154,154,154,1,0.918,0.2,False,None,D08,r2,2021-04-30_07h40.28.282,subsecond_timing_v2,2021.1.2,Win32,59.86590038
space,0.737325,space,1.28531,,,ms_large,0,155,155,155,1,0.847,0.2,False,None,D08,r2,2021-04-30_07h40.28.282,subsecond_timing_v2,2021.1.2,Win32,59.86590038
space,0.65679,space,1.49926,,,ms_large,0,156,156,156,1,1.129,0.3,False,None,D08,r2,2021-04-30_07h40.28.282,subsecond_timing_v2,2021.1.2,Win32,59.86590038
space,0.60154,space,1.792055,,,ms_large,0,157,157,157,1,1.024,0.1,False,None,D08,r2,2021-04-30_07h40.28.282,subsecond_timing_v2,2021.1.2,Win32,59.86590038
space,0.60224,space,1.817695,,,ms_large,0,158,158,158,1,0.988,0.2,False,None,D08,r2,2021-04-30_07h40.28.282,subsecond_timing_v2,2021.1.2,Win32,59.86590038
space,0.558675,space,2.23731,,,ms_large,0,159,159,159,1,1.094,0.2,False,None,D08,r2,2021-04-30_07h40.28.282,subsecond_timing_v2,2021.1.2,Win32,59.86590038
space,0.68532,space,1.81014,,,ms_large,0,160,160,160,1,1.129,0.2,False,None,D08,r2,2021-04-30_07h40.28.282,subsecond_timing_v2,2021.1.2,Win32,59.86590038
space,0.706945,space,2.388535,,,ms_large,0,161,161,161,1,0.953,0.2,False,None,D08,r2,2021-04-30_07h40.28.282,subsecond_timing_v2,2021.1.2,Win32,59.86590038
space,0.946535,space,2.03485,,,ms_large,0,162,162,162,1,0.847,0.3,False,None,D08,r2,2021-04-30_07h40.28.282,subsecond_timing_v2,2021.1.2,Win32,59.86590038
space,0.772445,space,2.137145,,,ms_large,0,163,163,163,1,0.988,0.1,False,None,D08,r2,2021-04-30_07h40.28.282,subsecond_timing_v2,2021.1.2,Win32,59.86590038
space,0.982825,space,1.90944,,,ms_large,0,164,164,164,1,0.882,0.1,False,None,D08,r2,2021-04-30_07h40.28.282,subsecond_timing_v2,2021.1.2,Win32,59.86590038
space,0.628195,space,2.15693,,,ms_large,0,165,165,165,1,1.094,0.1,False,None,D08,r2,2021-04-30_07h40.28.282,subsecond_timing_v2,2021.1.2,Win32,59.86590038
space,0.70438,space,2.48474,,,ms_large,0,166,166,166,1,0.918,0.2,False,None,D08,r2,2021-04-30_07h40.28.282,subsecond_timing_v2,2021.1.2,Win32,59.86590038
space,0.52248,space,2.27415,,,ms_large,0,167,167,167,1,1.024,0.3,False,None,D08,r2,2021-04-30_07h40.28.282,subsecond_timing_v2,2021.1.2,Win32,59.86590038
space,0.75388,space,2.09385,,,ms_large,0,168,168,168,1,1.059,0.1,False,None,D08,r2,2021-04-30_07h40.28.282,subsecond_timing_v2,2021.1.2,Win32,59.86590038
space,0.56371,space,2.03496,,,ms_large,0,169,169,169,1,1.2,0.3,False,None,D08,r2,2021-04-30_07h40.28.282,subsecond_timing_v2,2021.1.2,Win32,59.86590038
space,0.58516,space,1.89354,,,ms_large,0,170,170,170,1,1.165,0.3,False,None,D08,r2,2021-04-30_07h40.28.282,subsecond_timing_v2,2021.1.2,Win32,59.86590038
space,0.693955,space,1.771205,,,ms_large,0,171,171,171,1,1.094,0.1,False,None,D08,r2,2021-04-30_07h40.28.282,subsecond_timing_v2,2021.1.2,Win32,59.86590038
space,0.660235,space,2.18428,,,ms_large,0,172,172,172,1,1.024,0.1,False,None,D08,r2,2021-04-30_07h40.28.282,subsecond_timing_v2,2021.1.2,Win32,59.86590038
space,0.69428,space,2.095095,,,ms_large,0,173,173,173,1,0.988,0.2,False,None,D08,r2,2021-04-30_07h40.28.282,subsecond_timing_v2,2021.1.2,Win32,59.86590038
space,0.68047,space,2.08482,,,ms_large,0,174,174,174,1,1.165,0.3,False,None,D08,r2,2021-04-30_07h40.28.282,subsecond_timing_v2,2021.1.2,Win32,59.86590038
space,0.62781,space,2.02643,,,ms_large,0,175,175,175,1,0.847,0.1,False,None,D08,r2,2021-04-30_07h40.28.282,subsecond_timing_v2,2021.1.2,Win32,59.86590038
space,0.689365,space,1.651375,,,ms_large,0,176,176,176,1,1.2,0.1,False,None,D08,r2,2021-04-30_07h40.28.282,subsecond_timing_v2,2021.1.2,Win32,59.86590038
space,0.528075,space,1.57795,,,ms_large,0,177,177,177,1,0.882,0.1,False,None,D08,r2,2021-04-30_07h40.28.282,subsecond_timing_v2,2021.1.2,Win32,59.86590038
space,0.749845,space,1.647005,,,ms_large,0,178,178,178,1,1.129,0.1,False,None,D08,r2,2021-04-30_07h40.28.282,subsecond_timing_v2,2021.1.2,Win32,59.86590038
space,0.59736,space,1.951095,,,ms_large,0,179,179,179,1,0.953,0.1,False,None,D08,r2,2021-04-30_07h40.28.282,subsecond_timing_v2,2021.1.2,Win32,59.86590038
space,1.044265,space,1.60477,,,ms_large,0,180,180,180,1,0.918,0.3,False,None,D08,r2,2021-04-30_07h40.28.282,subsecond_timing_v2,2021.1.2,Win32,59.86590038
space,0.61162,space,1.805765,,,ms_large,0,181,181,181,1,1.059,0.2,False,None,D08,r2,2021-04-30_07h40.28.282,subsecond_timing_v2,2021.1.2,Win32,59.86590038
space,0.4948,space,1.863285,,,ms_large,0,182,182,182,1,1.165,0.1,False,None,D08,r2,2021-04-30_07h40.28.282,subsecond_timing_v2,2021.1.2,Win32,59.86590038
space,0.683305,space,1.784335,,,ms_large,0,183,183,183,1,1.024,0.3,False,None,D08,r2,2021-04-30_07h40.28.282,subsecond_timing_v2,2021.1.2,Win32,59.86590038
space,0.559965,space,1.760205,,,ms_large,0,184,184,184,1,1.2,0.2,False,None,D08,r2,2021-04-30_07h40.28.282,subsecond_timing_v2,2021.1.2,Win32,59.86590038
space,1.149885,space,1.96084,,,ms_large,0,185,185,185,1,0.882,0.3,False,None,D08,r2,2021-04-30_07h40.28.282,subsecond_timing_v2,2021.1.2,Win32,59.86590038
space,0.593965,space,1.703845,,,ms_large,0,186,186,186,1,1.129,0.3,False,None,D08,r2,2021-04-30_07h40.28.282,subsecond_timing_v2,2021.1.2,Win32,59.86590038
space,0.63483,space,1.789905,,,ms_large,0,187,187,187,1,0.953,0.1,False,None,D08,r2,2021-04-30_07h40.28.282,subsecond_timing_v2,2021.1.2,Win32,59.86590038
space,0.52345,space,2.504725,,,ms_large,0,188,188,188,1,0.988,0.1,False,None,D08,r2,2021-04-30_07h40.28.282,subsecond_timing_v2,2021.1.2,Win32,59.86590038
space,0.62152,space,2.21828,,,ms_large,0,189,189,189,1,0.918,0.3,False,None,D08,r2,2021-04-30_07h40.28.282,subsecond_timing_v2,2021.1.2,Win32,59.86590038
space,0.544995,space,2.33596,,,ms_large,0,190,190,190,1,1.059,0.2,False,None,D08,r2,2021-04-30_07h40.28.282,subsecond_timing_v2,2021.1.2,Win32,59.86590038
space,0.666055,space,1.9542,,,ms_large,0,191,191,191,1,0.847,0.3,False,None,D08,r2,2021-04-30_07h40.28.282,subsecond_timing_v2,2021.1.2,Win32,59.86590038
space,0.537135,space,1.82736,,,ms_large,0,192,192,192,1,1.094,0.3,False,None,D08,r2,2021-04-30_07h40.28.282,subsecond_timing_v2,2021.1.2,Win32,59.86590038
space,0.552065,space,1.62097,,,ms_large,0,193,193,193,1,0.847,0.1,False,None,D08,r2,2021-04-30_07h40.28.282,subsecond_timing_v2,2021.1.2,Win32,59.86590038
space,0.58071,space,1.80477,,,ms_large,0,194,194,194,1,1.2,0.2,False,None,D08,r2,2021-04-30_07h40.28.282,subsecond_timing_v2,2021.1.2,Win32,59.86590038
space,0.651555,space,1.90515,,,ms_large,0,195,195,195,1,0.918,0.3,False,None,D08,r2,2021-04-30_07h40.28.282,subsecond_timing_v2,2021.1.2,Win32,59.86590038
space,0.57404,space,2.204445,,,ms_large,0,196,196,196,1,1.024,0.2,False,None,D08,r2,2021-04-30_07h40.28.282,subsecond_timing_v2,2021.1.2,Win32,59.86590038
space,0.606825,space,1.624035,,,ms_large,0,197,197,197,1,1.094,0.1,False,None,D08,r2,2021-04-30_07h40.28.282,subsecond_timing_v2,2021.1.2,Win32,59.86590038
space,0.588265,space,1.934845,,,ms_large,0,198,198,198,1,0.953,0.1,False,None,D08,r2,2021-04-30_07h40.28.282,subsecond_timing_v2,2021.1.2,Win32,59.86590038
space,0.62317,space,2.076375,,,ms_large,0,199,199,199,1,1.129,0.3,False,None,D08,r2,2021-04-30_07h40.28.282,subsecond_timing_v2,2021.1.2,Win32,59.86590038
space,0.685225,space,1.85184,,,ms_large,0,200,200,200,1,0.988,0.1,False,None,D08,r2,2021-04-30_07h40.28.282,subsecond_timing_v2,2021.1.2,Win32,59.86590038
space,0.5381,space,1.73532,,,ms_large,0,201,201,201,1,0.882,0.3,False,None,D08,r2,2021-04-30_07h40.28.282,subsecond_timing_v2,2021.1.2,Win32,59.86590038
space,0.427625,space,1.71362,,,ms_large,0,202,202,202,1,1.059,0.3,False,None,D08,r2,2021-04-30_07h40.28.282,subsecond_timing_v2,2021.1.2,Win32,59.86590038
space,0.449555,space,1.75386,,,ms_large,0,203,203,203,1,1.165,0.2,False,None,D08,r2,2021-04-30_07h40.28.282,subsecond_timing_v2,2021.1.2,Win32,59.86590038
space,0.689765,space,1.83058,,,ms_large,0,204,204,204,1,0.953,0.2,False,None,D08,r2,2021-04-30_07h40.28.282,subsecond_timing_v2,2021.1.2,Win32,59.86590038
space,0.75256,space,1.854175,,,ms_large,0,205,205,205,1,1.094,0.3,False,None,D08,r2,2021-04-30_07h40.28.282,subsecond_timing_v2,2021.1.2,Win32,59.86590038
space,0.50514,space,1.868225,,,ms_large,0,206,206,206,1,1.2,0.2,False,None,D08,r2,2021-04-30_07h40.28.282,subsecond_timing_v2,2021.1.2,Win32,59.86590038
space,0.826315,space,1.68475,,,ms_large,0,207,207,207,1,1.024,0.1,False,None,D08,r2,2021-04-30_07h40.28.282,subsecond_timing_v2,2021.1.2,Win32,59.86590038
space,0.70579,space,1.83497,,,ms_large,0,208,208,208,1,0.847,0.3,False,None,D08,r2,2021-04-30_07h40.28.282,subsecond_timing_v2,2021.1.2,Win32,59.86590038
space,0.649765,space,1.918225,,,ms_large,0,209,209,209,1,1.129,0.2,False,None,D08,r2,2021-04-30_07h40.28.282,subsecond_timing_v2,2021.1.2,Win32,59.86590038
space,0.553265,space,1.96047,,,ms_large,0,210,210,210,1,1.165,0.3,False,None,D08,r2,2021-04-30_07h40.28.282,subsecond_timing_v2,2021.1.2,Win32,59.86590038
space,0.66133,space,1.76823,,,ms_large,0,211,211,211,1,0.988,0.3,False,None,D08,r2,2021-04-30_07h40.28.282,subsecond_timing_v2,2021.1.2,Win32,59.86590038
space,0.515935,space,1.91068,,,ms_large,0,212,212,212,1,0.882,0.3,False,None,D08,r2,2021-04-30_07h40.28.282,subsecond_timing_v2,2021.1.2,Win32,59.86590038
space,0.71556,space,1.40556,,,ms_large,0,213,213,213,1,1.059,0.2,False,None,D08,r2,2021-04-30_07h40.28.282,subsecond_timing_v2,2021.1.2,Win32,59.86590038
space,0.644545,space,1.809855,,,ms_large,0,214,214,214,1,0.918,0.3,False,None,D08,r2,2021-04-30_07h40.28.282,subsecond_timing_v2,2021.1.2,Win32,59.86590038
space,0.67525,space,2.234805,,,ms_large,0,215,215,215,1,0.953,0.2,False,None,D08,r2,2021-04-30_07h40.28.282,subsecond_timing_v2,2021.1.2,Win32,59.86590038
space,0.9009,space,1.758855,,,ms_large,0,216,216,216,1,0.847,0.3,False,None,D08,r2,2021-04-30_07h40.28.282,subsecond_timing_v2,2021.1.2,Win32,59.86590038
space,1.118055,space,1.96138,,,ms_large,0,217,217,217,1,1.024,0.1,False,None,D08,r2,2021-04-30_07h40.28.282,subsecond_timing_v2,2021.1.2,Win32,59.86590038
space,0.582555,space,1.863565,,,ms_large,0,218,218,218,1,1.059,0.3,False,None,D08,r2,2021-04-30_07h40.28.282,subsecond_timing_v2,2021.1.2,Win32,59.86590038
space,0.67104,space,1.534925,,,ms_large,0,219,219,219,1,0.988,0.1,False,None,D08,r2,2021-04-30_07h40.28.282,subsecond_timing_v2,2021.1.2,Win32,59.86590038
space,0.93589,space,1.30792,,,ms_large,0,220,220,220,1,1.094,0.1,False,None,D08,r2,2021-04-30_07h40.28.282,subsecond_timing_v2,2021.1.2,Win32,59.86590038
space,0.619385,space,1.12999,,,ms_large,0,221,221,221,1,0.918,0.3,False,None,D08,r2,2021-04-30_07h40.28.282,subsecond_timing_v2,2021.1.2,Win32,59.86590038
space,1.017245,space,1.817475,,,ms_large,0,222,222,222,1,0.882,0.1,False,None,D08,r2,2021-04-30_07h40.28.282,subsecond_timing_v2,2021.1.2,Win32,59.86590038
space,0.73549,space,1.392955,,,ms_large,0,223,223,223,1,1.129,0.2,False,None,D08,r2,2021-04-30_07h40.28.282,subsecond_timing_v2,2021.1.2,Win32,59.86590038
space,0.69048,space,1.516055,,,ms_large,0,224,224,224,1,1.165,0.3,False,None,D08,r2,2021-04-30_07h40.28.282,subsecond_timing_v2,2021.1.2,Win32,59.86590038
space,0.63631,space,1.63434,,,ms_large,0,225,225,225,1,1.2,0.3,False,None,D08,r2,2021-04-30_07h40.28.282,subsecond_timing_v2,2021.1.2,Win32,59.86590038
