key_resp_start.keys,key_resp_start.rt,key_resp_stop.keys,key_resp_stop.rt,feedback_range,hit,stimulus_range,trials.thisRepN,trials.thisTrialN,trials.thisN,trials.thisIndex,trials.ran,stimulus_duration,onset,feedback,feedback_range_fromfile,participant,session,date,expName,psychopyVersion,OS,frameRate
space,0.40072,space,0.86745,0.3,TRUE,Training,0,0,0,0,1,1,0.2,True,0.3,D10,r2,2021-05-01_21h27.22.482,subsecond_timing_v2,2021.1.2,Win32,60.30271965
space,0.768595,space,0.78396,0.3,TRUE,Training,0,1,1,1,1,0.75,0.2,True,0.3,D10,r2,2021-05-01_21h27.22.482,subsecond_timing_v2,2021.1.2,Win32,60.30271965
space,0.628035,space,0.369435,0.3,TRUE,Training,0,2,2,2,1,0.5,0.2,True,0.3,D10,r2,2021-05-01_21h27.22.482,subsecond_timing_v2,2021.1.2,Win32,60.30271965
space,0.52475,space,0.27856,0.3,FALSE,Training,0,3,3,3,1,0.5,0.3,True,0.3,D10,r2,2021-05-01_21h27.22.482,subsecond_timing_v2,2021.1.2,Win32,60.30271965
space,0.76721,space,0.851335,0.3,TRUE,Training,0,4,4,4,1,0.75,0.3,True,0.3,D10,r2,2021-05-01_21h27.22.482,subsecond_timing_v2,2021.1.2,Win32,60.30271965
space,0.88003,space,0.91169,0.3,TRUE,Training,0,5,5,5,1,1,0.3,True,0.3,D10,r2,2021-05-01_21h27.22.482,subsecond_timing_v2,2021.1.2,Win32,60.30271965
space,1.18011,space,1.078595,,,ms_large,0,6,6,6,1,1.165,0.2,False,None,D10,r2,2021-05-01_21h27.22.482,subsecond_timing_v2,2021.1.2,Win32,60.30271965
space,0.833395,space,0.85072,,,ms_large,0,7,7,7,1,1.094,0.3,False,None,D10,r2,2021-05-01_21h27.22.482,subsecond_timing_v2,2021.1.2,Win32,60.30271965
space,0.80778,space,1.095465,,,ms_large,0,8,8,8,1,1.2,0.3,False,None,D10,r2,2021-05-01_21h27.22.482,subsecond_timing_v2,2021.1.2,Win32,60.30271965
space,0.75441,space,0.784435,,,ms_large,0,9,9,9,1,1.024,0.1,False,None,D10,r2,2021-05-01_21h27.22.482,subsecond_timing_v2,2021.1.2,Win32,60.30271965
space,0.68458,space,0.76811,,,ms_large,0,10,10,10,1,0.953,0.3,False,None,D10,r2,2021-05-01_21h27.22.482,subsecond_timing_v2,2021.1.2,Win32,60.30271965
space,0.717625,space,0.796705,,,ms_large,0,11,11,11,1,0.847,0.1,False,None,D10,r2,2021-05-01_21h27.22.482,subsecond_timing_v2,2021.1.2,Win32,60.30271965
space,0.71887,space,0.805485,,,ms_large,0,12,12,12,1,0.882,0.3,False,None,D10,r2,2021-05-01_21h27.22.482,subsecond_timing_v2,2021.1.2,Win32,60.30271965
space,0.591495,space,0.92816,,,ms_large,0,13,13,13,1,1.129,0.1,False,None,D10,r2,2021-05-01_21h27.22.482,subsecond_timing_v2,2021.1.2,Win32,60.30271965
space,0.69562,space,0.91318,,,ms_large,0,14,14,14,1,1.059,0.3,False,None,D10,r2,2021-05-01_21h27.22.482,subsecond_timing_v2,2021.1.2,Win32,60.30271965
space,0.608075,space,0.81233,,,ms_large,0,15,15,15,1,0.918,0.3,False,None,D10,r2,2021-05-01_21h27.22.482,subsecond_timing_v2,2021.1.2,Win32,60.30271965
space,0.68444,space,1.026895,,,ms_large,0,16,16,16,1,0.988,0.1,False,None,D10,r2,2021-05-01_21h27.22.482,subsecond_timing_v2,2021.1.2,Win32,60.30271965
space,0.76726,space,0.716845,,,ms_large,0,17,17,17,1,0.953,0.2,False,None,D10,r2,2021-05-01_21h27.22.482,subsecond_timing_v2,2021.1.2,Win32,60.30271965
space,0.68396,space,0.86731,,,ms_large,0,18,18,18,1,1.129,0.3,False,None,D10,r2,2021-05-01_21h27.22.482,subsecond_timing_v2,2021.1.2,Win32,60.30271965
space,0.73738,space,0.824905,,,ms_large,0,19,19,19,1,0.988,0.2,False,None,D10,r2,2021-05-01_21h27.22.482,subsecond_timing_v2,2021.1.2,Win32,60.30271965
space,0.654215,space,0.72731,,,ms_large,0,20,20,20,1,1.024,0.1,False,None,D10,r2,2021-05-01_21h27.22.482,subsecond_timing_v2,2021.1.2,Win32,60.30271965
space,0.63358,space,0.8548,,,ms_large,0,21,21,21,1,1.165,0.1,False,None,D10,r2,2021-05-01_21h27.22.482,subsecond_timing_v2,2021.1.2,Win32,60.30271965
space,0.795745,space,1.25202,,,ms_large,0,22,22,22,1,1.2,0.1,False,None,D10,r2,2021-05-01_21h27.22.482,subsecond_timing_v2,2021.1.2,Win32,60.30271965
space,0.7633,space,1.008435,,,ms_large,0,23,23,23,1,0.882,0.2,False,None,D10,r2,2021-05-01_21h27.22.482,subsecond_timing_v2,2021.1.2,Win32,60.30271965
space,0.68428,space,1.71916,,,ms_large,0,24,24,24,1,0.847,0.3,False,None,D10,r2,2021-05-01_21h27.22.482,subsecond_timing_v2,2021.1.2,Win32,60.30271965
space,0.839485,space,1.273285,,,ms_large,0,25,25,25,1,1.094,0.1,False,None,D10,r2,2021-05-01_21h27.22.482,subsecond_timing_v2,2021.1.2,Win32,60.30271965
space,0.76107,space,1.14017,,,ms_large,0,26,26,26,1,1.059,0.1,False,None,D10,r2,2021-05-01_21h27.22.482,subsecond_timing_v2,2021.1.2,Win32,60.30271965
space,0.79493,space,1.12086,,,ms_large,0,27,27,27,1,0.918,0.3,False,None,D10,r2,2021-05-01_21h27.22.482,subsecond_timing_v2,2021.1.2,Win32,60.30271965
space,0.68454,space,1.20594,,,ms_large,0,28,28,28,1,0.988,0.2,False,None,D10,r2,2021-05-01_21h27.22.482,subsecond_timing_v2,2021.1.2,Win32,60.30271965
space,0.76922,space,1.078505,,,ms_large,0,29,29,29,1,1.165,0.2,False,None,D10,r2,2021-05-01_21h27.22.482,subsecond_timing_v2,2021.1.2,Win32,60.30271965
space,0.701075,space,0.974775,,,ms_large,0,30,30,30,1,1.129,0.1,False,None,D10,r2,2021-05-01_21h27.22.482,subsecond_timing_v2,2021.1.2,Win32,60.30271965
space,0.65094,space,0.883925,,,ms_large,0,31,31,31,1,1.059,0.1,False,None,D10,r2,2021-05-01_21h27.22.482,subsecond_timing_v2,2021.1.2,Win32,60.30271965
space,0.62571,space,0.867085,,,ms_large,0,32,32,32,1,0.918,0.3,False,None,D10,r2,2021-05-01_21h27.22.482,subsecond_timing_v2,2021.1.2,Win32,60.30271965
space,0.7463,space,0.96739,,,ms_large,0,33,33,33,1,1.2,0.3,False,None,D10,r2,2021-05-01_21h27.22.482,subsecond_timing_v2,2021.1.2,Win32,60.30271965
space,1.058125,space,0.805285,,,ms_large,0,34,34,34,1,0.847,0.1,False,None,D10,r2,2021-05-01_21h27.22.482,subsecond_timing_v2,2021.1.2,Win32,60.30271965
space,0.80073,space,0.941655,,,ms_large,0,35,35,35,1,1.024,0.1,False,None,D10,r2,2021-05-01_21h27.22.482,subsecond_timing_v2,2021.1.2,Win32,60.30271965
space,0.751315,space,0.9271,,,ms_large,0,36,36,36,1,0.882,0.1,False,None,D10,r2,2021-05-01_21h27.22.482,subsecond_timing_v2,2021.1.2,Win32,60.30271965
space,0.468955,space,0.934025,,,ms_large,0,37,37,37,1,1.094,0.2,False,None,D10,r2,2021-05-01_21h27.22.482,subsecond_timing_v2,2021.1.2,Win32,60.30271965
space,0.700595,space,1.001125,,,ms_large,0,38,38,38,1,0.953,0.1,False,None,D10,r2,2021-05-01_21h27.22.482,subsecond_timing_v2,2021.1.2,Win32,60.30271965
space,0.72973,space,1.039805,,,ms_large,0,39,39,39,1,1.165,0.2,False,None,D10,r2,2021-05-01_21h27.22.482,subsecond_timing_v2,2021.1.2,Win32,60.30271965
space,0.85068,space,1.00084,,,ms_large,0,40,40,40,1,0.953,0.1,False,None,D10,r2,2021-05-01_21h27.22.482,subsecond_timing_v2,2021.1.2,Win32,60.30271965
space,0.817965,space,1.167555,,,ms_large,0,41,41,41,1,0.988,0.1,False,None,D10,r2,2021-05-01_21h27.22.482,subsecond_timing_v2,2021.1.2,Win32,60.30271965
space,0.74013,space,1.034625,,,ms_large,0,42,42,42,1,1.094,0.1,False,None,D10,r2,2021-05-01_21h27.22.482,subsecond_timing_v2,2021.1.2,Win32,60.30271965
space,0.650815,space,1.175745,,,ms_large,0,43,43,43,1,1.129,0.3,False,None,D10,r2,2021-05-01_21h27.22.482,subsecond_timing_v2,2021.1.2,Win32,60.30271965
space,0.63787,space,0.706945,,,ms_large,0,44,44,44,1,0.882,0.2,False,None,D10,r2,2021-05-01_21h27.22.482,subsecond_timing_v2,2021.1.2,Win32,60.30271965
space,0.670755,space,1.055555,,,ms_large,0,45,45,45,1,1.2,0.1,False,None,D10,r2,2021-05-01_21h27.22.482,subsecond_timing_v2,2021.1.2,Win32,60.30271965
space,0.750725,space,0.95229,,,ms_large,0,46,46,46,1,1.024,0.1,False,None,D10,r2,2021-05-01_21h27.22.482,subsecond_timing_v2,2021.1.2,Win32,60.30271965
space,0.3598,space,0.96922,,,ms_large,0,47,47,47,1,0.918,0.2,False,None,D10,r2,2021-05-01_21h27.22.482,subsecond_timing_v2,2021.1.2,Win32,60.30271965
space,0.761795,space,0.920755,,,ms_large,0,48,48,48,1,0.847,0.1,False,None,D10,r2,2021-05-01_21h27.22.482,subsecond_timing_v2,2021.1.2,Win32,60.30271965
space,0.643895,space,0.966595,,,ms_large,0,49,49,49,1,1.059,0.3,False,None,D10,r2,2021-05-01_21h27.22.482,subsecond_timing_v2,2021.1.2,Win32,60.30271965
space,0.77474,space,0.77602,,,ms_large,0,50,50,50,1,0.953,0.2,False,None,D10,r2,2021-05-01_21h27.22.482,subsecond_timing_v2,2021.1.2,Win32,60.30271965
space,0.61019,space,0.79262,,,ms_large,0,51,51,51,1,1.024,0.3,False,None,D10,r2,2021-05-01_21h27.22.482,subsecond_timing_v2,2021.1.2,Win32,60.30271965
space,0.600775,space,0.84333,,,ms_large,0,52,52,52,1,1.165,0.3,False,None,D10,r2,2021-05-01_21h27.22.482,subsecond_timing_v2,2021.1.2,Win32,60.30271965
space,0.71739,space,0.846415,,,ms_large,0,53,53,53,1,0.847,0.3,False,None,D10,r2,2021-05-01_21h27.22.482,subsecond_timing_v2,2021.1.2,Win32,60.30271965
space,0.667815,space,1.146295,,,ms_large,0,54,54,54,1,1.2,0.1,False,None,D10,r2,2021-05-01_21h27.22.482,subsecond_timing_v2,2021.1.2,Win32,60.30271965
space,0.77113,space,1.141445,,,ms_large,0,55,55,55,1,0.988,0.3,False,None,D10,r2,2021-05-01_21h27.22.482,subsecond_timing_v2,2021.1.2,Win32,60.30271965
space,0.634925,space,0.90373,,,ms_large,0,56,56,56,1,0.882,0.1,False,None,D10,r2,2021-05-01_21h27.22.482,subsecond_timing_v2,2021.1.2,Win32,60.30271965
space,0.73832,space,1.021815,,,ms_large,0,57,57,57,1,1.059,0.1,False,None,D10,r2,2021-05-01_21h27.22.482,subsecond_timing_v2,2021.1.2,Win32,60.30271965
space,0.826555,space,1.234185,,,ms_large,0,58,58,58,1,1.094,0.1,False,None,D10,r2,2021-05-01_21h27.22.482,subsecond_timing_v2,2021.1.2,Win32,60.30271965
space,0.728715,space,1.18408,,,ms_large,0,59,59,59,1,1.129,0.3,False,None,D10,r2,2021-05-01_21h27.22.482,subsecond_timing_v2,2021.1.2,Win32,60.30271965
space,0.667275,space,1.03671,,,ms_large,0,60,60,60,1,0.918,0.3,False,None,D10,r2,2021-05-01_21h27.22.482,subsecond_timing_v2,2021.1.2,Win32,60.30271965
space,0.635525,space,1.25126,,,ms_large,0,61,61,61,1,1.129,0.1,False,None,D10,r2,2021-05-01_21h27.22.482,subsecond_timing_v2,2021.1.2,Win32,60.30271965
space,0.58655,space,1.004835,,,ms_large,0,62,62,62,1,1.165,0.3,False,None,D10,r2,2021-05-01_21h27.22.482,subsecond_timing_v2,2021.1.2,Win32,60.30271965
space,0.67989,space,1.18432,,,ms_large,0,63,63,63,1,0.953,0.2,False,None,D10,r2,2021-05-01_21h27.22.482,subsecond_timing_v2,2021.1.2,Win32,60.30271965
space,0.70072,space,1.091225,,,ms_large,0,64,64,64,1,1.094,0.2,False,None,D10,r2,2021-05-01_21h27.22.482,subsecond_timing_v2,2021.1.2,Win32,60.30271965
space,0.66762,space,1.051185,,,ms_large,0,65,65,65,1,0.882,0.1,False,None,D10,r2,2021-05-01_21h27.22.482,subsecond_timing_v2,2021.1.2,Win32,60.30271965
space,0.590775,space,1.028115,,,ms_large,0,66,66,66,1,0.918,0.2,False,None,D10,r2,2021-05-01_21h27.22.482,subsecond_timing_v2,2021.1.2,Win32,60.30271965
space,0.574895,space,0.841645,,,ms_large,0,67,67,67,1,0.988,0.1,False,None,D10,r2,2021-05-01_21h27.22.482,subsecond_timing_v2,2021.1.2,Win32,60.30271965
space,0.695365,space,1.101275,,,ms_large,0,68,68,68,1,1.024,0.1,False,None,D10,r2,2021-05-01_21h27.22.482,subsecond_timing_v2,2021.1.2,Win32,60.30271965
space,0.651045,space,0.961835,,,ms_large,0,69,69,69,1,1.2,0.1,False,None,D10,r2,2021-05-01_21h27.22.482,subsecond_timing_v2,2021.1.2,Win32,60.30271965
space,0.60068,space,0.842185,,,ms_large,0,70,70,70,1,1.059,0.1,False,None,D10,r2,2021-05-01_21h27.22.482,subsecond_timing_v2,2021.1.2,Win32,60.30271965
space,0.697045,space,0.87096,,,ms_large,0,71,71,71,1,0.847,0.1,False,None,D10,r2,2021-05-01_21h27.22.482,subsecond_timing_v2,2021.1.2,Win32,60.30271965
space,0.945135,space,0.717625,,,ms_large,0,72,72,72,1,1.094,0.2,False,None,D10,r2,2021-05-01_21h27.22.482,subsecond_timing_v2,2021.1.2,Win32,60.30271965
space,1.017125,space,0.80028,,,ms_large,0,73,73,73,1,0.918,0.3,False,None,D10,r2,2021-05-01_21h27.22.482,subsecond_timing_v2,2021.1.2,Win32,60.30271965
space,0.82754,space,1.00562,,,ms_large,0,74,74,74,1,0.953,0.2,False,None,D10,r2,2021-05-01_21h27.22.482,subsecond_timing_v2,2021.1.2,Win32,60.30271965
space,0.73355,space,0.97276,,,ms_large,0,75,75,75,1,0.882,0.2,False,None,D10,r2,2021-05-01_21h27.22.482,subsecond_timing_v2,2021.1.2,Win32,60.30271965
space,0.98702,space,1.11369,,,ms_large,0,76,76,76,1,0.988,0.3,False,None,D10,r2,2021-05-01_21h27.22.482,subsecond_timing_v2,2021.1.2,Win32,60.30271965
space,0.79041,space,1.0097,,,ms_large,0,77,77,77,1,1.2,0.1,False,None,D10,r2,2021-05-01_21h27.22.482,subsecond_timing_v2,2021.1.2,Win32,60.30271965
space,0.687715,space,0.94572,,,ms_large,0,78,78,78,1,1.024,0.2,False,None,D10,r2,2021-05-01_21h27.22.482,subsecond_timing_v2,2021.1.2,Win32,60.30271965
space,0.77063,space,1.024695,,,ms_large,0,79,79,79,1,1.129,0.1,False,None,D10,r2,2021-05-01_21h27.22.482,subsecond_timing_v2,2021.1.2,Win32,60.30271965
space,0.578655,space,0.868215,,,ms_large,0,80,80,80,1,1.165,0.3,False,None,D10,r2,2021-05-01_21h27.22.482,subsecond_timing_v2,2021.1.2,Win32,60.30271965
space,0.635425,space,1.167505,,,ms_large,0,81,81,81,1,1.059,0.2,False,None,D10,r2,2021-05-01_21h27.22.482,subsecond_timing_v2,2021.1.2,Win32,60.30271965
space,0.850635,space,0.933625,,,ms_large,0,82,82,82,1,0.847,0.1,False,None,D10,r2,2021-05-01_21h27.22.482,subsecond_timing_v2,2021.1.2,Win32,60.30271965
space,0.661145,space,0.772695,,,ms_large,0,83,83,83,1,1.024,0.1,False,None,D10,r2,2021-05-01_21h27.22.482,subsecond_timing_v2,2021.1.2,Win32,60.30271965
space,0.535865,space,1.017125,,,ms_large,0,84,84,84,1,1.059,0.3,False,None,D10,r2,2021-05-01_21h27.22.482,subsecond_timing_v2,2021.1.2,Win32,60.30271965
space,0.534215,space,0.72119,,,ms_large,0,85,85,85,1,0.918,0.1,False,None,D10,r2,2021-05-01_21h27.22.482,subsecond_timing_v2,2021.1.2,Win32,60.30271965
space,0.59336,space,0.800935,,,ms_large,0,86,86,86,1,1.165,0.1,False,None,D10,r2,2021-05-01_21h27.22.482,subsecond_timing_v2,2021.1.2,Win32,60.30271965
space,0.77755,space,0.910185,,,ms_large,0,87,87,87,1,0.953,0.1,False,None,D10,r2,2021-05-01_21h27.22.482,subsecond_timing_v2,2021.1.2,Win32,60.30271965
space,0.638155,space,0.85816,,,ms_large,0,88,88,88,1,0.882,0.1,False,None,D10,r2,2021-05-01_21h27.22.482,subsecond_timing_v2,2021.1.2,Win32,60.30271965
space,0.672155,space,0.79611,,,ms_large,0,89,89,89,1,0.847,0.1,False,None,D10,r2,2021-05-01_21h27.22.482,subsecond_timing_v2,2021.1.2,Win32,60.30271965
space,0.634435,space,0.879475,,,ms_large,0,90,90,90,1,1.094,0.1,False,None,D10,r2,2021-05-01_21h27.22.482,subsecond_timing_v2,2021.1.2,Win32,60.30271965
space,0.99449,space,1.06819,,,ms_large,0,91,91,91,1,1.129,0.2,False,None,D10,r2,2021-05-01_21h27.22.482,subsecond_timing_v2,2021.1.2,Win32,60.30271965
space,0.65991,space,1.20745,,,ms_large,0,92,92,92,1,1.2,0.1,False,None,D10,r2,2021-05-01_21h27.22.482,subsecond_timing_v2,2021.1.2,Win32,60.30271965
space,0.70255,space,1.1801,,,ms_large,0,93,93,93,1,0.988,0.1,False,None,D10,r2,2021-05-01_21h27.22.482,subsecond_timing_v2,2021.1.2,Win32,60.30271965
space,0.583985,space,0.96774,,,ms_large,0,94,94,94,1,1.129,0.3,False,None,D10,r2,2021-05-01_21h27.22.482,subsecond_timing_v2,2021.1.2,Win32,60.30271965
space,0.694925,space,1.01825,,,ms_large,0,95,95,95,1,1.165,0.2,False,None,D10,r2,2021-05-01_21h27.22.482,subsecond_timing_v2,2021.1.2,Win32,60.30271965
space,0.76719,space,1.05296,,,ms_large,0,96,96,96,1,1.024,0.3,False,None,D10,r2,2021-05-01_21h27.22.482,subsecond_timing_v2,2021.1.2,Win32,60.30271965
space,0.66133,space,0.806785,,,ms_large,0,97,97,97,1,1.094,0.1,False,None,D10,r2,2021-05-01_21h27.22.482,subsecond_timing_v2,2021.1.2,Win32,60.30271965
space,0.742305,space,1.017975,,,ms_large,0,98,98,98,1,1.059,0.2,False,None,D10,r2,2021-05-01_21h27.22.482,subsecond_timing_v2,2021.1.2,Win32,60.30271965
space,0.401435,space,1.033675,,,ms_large,0,99,99,99,1,1.2,0.1,False,None,D10,r2,2021-05-01_21h27.22.482,subsecond_timing_v2,2021.1.2,Win32,60.30271965
space,0.395215,space,0.840375,,,ms_large,0,100,100,100,1,0.882,0.3,False,None,D10,r2,2021-05-01_21h27.22.482,subsecond_timing_v2,2021.1.2,Win32,60.30271965
space,0.81618,space,0.97732,,,ms_large,0,101,101,101,1,0.918,0.3,False,None,D10,r2,2021-05-01_21h27.22.482,subsecond_timing_v2,2021.1.2,Win32,60.30271965
space,0.52846,space,0.734895,,,ms_large,0,102,102,102,1,0.988,0.3,False,None,D10,r2,2021-05-01_21h27.22.482,subsecond_timing_v2,2021.1.2,Win32,60.30271965
space,0.883395,space,1.079915,,,ms_large,0,103,103,103,1,0.847,0.1,False,None,D10,r2,2021-05-01_21h27.22.482,subsecond_timing_v2,2021.1.2,Win32,60.30271965
space,0.87433,space,0.86696,,,ms_large,0,104,104,104,1,0.953,0.3,False,None,D10,r2,2021-05-01_21h27.22.482,subsecond_timing_v2,2021.1.2,Win32,60.30271965
space,0.868305,space,0.93414,,,ms_large,0,105,105,105,1,0.847,0.3,False,None,D10,r2,2021-05-01_21h27.22.482,subsecond_timing_v2,2021.1.2,Win32,60.30271965
space,0.73733,space,0.94427,,,ms_large,0,106,106,106,1,1.094,0.3,False,None,D10,r2,2021-05-01_21h27.22.482,subsecond_timing_v2,2021.1.2,Win32,60.30271965
space,0.61757,space,0.96765,,,ms_large,0,107,107,107,1,1.129,0.3,False,None,D10,r2,2021-05-01_21h27.22.482,subsecond_timing_v2,2021.1.2,Win32,60.30271965
space,0.916955,space,0.95996,,,ms_large,0,108,108,108,1,0.882,0.3,False,None,D10,r2,2021-05-01_21h27.22.482,subsecond_timing_v2,2021.1.2,Win32,60.30271965
space,1.00679,space,0.86672,,,ms_large,0,109,109,109,1,0.953,0.2,False,None,D10,r2,2021-05-01_21h27.22.482,subsecond_timing_v2,2021.1.2,Win32,60.30271965
space,0.738475,space,0.93417,,,ms_large,0,110,110,110,1,0.988,0.1,False,None,D10,r2,2021-05-01_21h27.22.482,subsecond_timing_v2,2021.1.2,Win32,60.30271965
space,0.750705,space,0.87547,,,ms_large,0,111,111,111,1,1.165,0.3,False,None,D10,r2,2021-05-01_21h27.22.482,subsecond_timing_v2,2021.1.2,Win32,60.30271965
space,0.85017,space,0.94249,,,ms_large,0,112,112,112,1,0.918,0.2,False,None,D10,r2,2021-05-01_21h27.22.482,subsecond_timing_v2,2021.1.2,Win32,60.30271965
space,0.709505,space,0.850985,,,ms_large,0,113,113,113,1,1.059,0.3,False,None,D10,r2,2021-05-01_21h27.22.482,subsecond_timing_v2,2021.1.2,Win32,60.30271965
space,0.88509,space,0.971735,,,ms_large,0,114,114,114,1,1.2,0.2,False,None,D10,r2,2021-05-01_21h27.22.482,subsecond_timing_v2,2021.1.2,Win32,60.30271965
space,0.85254,space,1.092085,,,ms_large,0,115,115,115,1,1.024,0.3,False,None,D10,r2,2021-05-01_21h27.22.482,subsecond_timing_v2,2021.1.2,Win32,60.30271965
space,0.826055,space,0.96345,,,ms_large,0,116,116,116,1,1.129,0.3,False,None,D10,r2,2021-05-01_21h27.22.482,subsecond_timing_v2,2021.1.2,Win32,60.30271965
space,0.705105,space,1.107375,,,ms_large,0,117,117,117,1,1.2,0.3,False,None,D10,r2,2021-05-01_21h27.22.482,subsecond_timing_v2,2021.1.2,Win32,60.30271965
space,1.02024,space,0.95125,,,ms_large,0,118,118,118,1,1.024,0.3,False,None,D10,r2,2021-05-01_21h27.22.482,subsecond_timing_v2,2021.1.2,Win32,60.30271965
space,0.700605,space,0.72476,,,ms_large,0,119,119,119,1,1.094,0.1,False,None,D10,r2,2021-05-01_21h27.22.482,subsecond_timing_v2,2021.1.2,Win32,60.30271965
space,0.718205,space,0.98476,,,ms_large,0,120,120,120,1,1.059,0.1,False,None,D10,r2,2021-05-01_21h27.22.482,subsecond_timing_v2,2021.1.2,Win32,60.30271965
space,0.7839,space,1.24359,,,ms_large,0,121,121,121,1,0.988,0.2,False,None,D10,r2,2021-05-01_21h27.22.482,subsecond_timing_v2,2021.1.2,Win32,60.30271965
space,0.82621,space,0.96303,,,ms_large,0,122,122,122,1,0.847,0.3,False,None,D10,r2,2021-05-01_21h27.22.482,subsecond_timing_v2,2021.1.2,Win32,60.30271965
space,0.72987,space,0.87348,,,ms_large,0,123,123,123,1,0.953,0.2,False,None,D10,r2,2021-05-01_21h27.22.482,subsecond_timing_v2,2021.1.2,Win32,60.30271965
space,0.73916,space,0.81317,,,ms_large,0,124,124,124,1,0.918,0.2,False,None,D10,r2,2021-05-01_21h27.22.482,subsecond_timing_v2,2021.1.2,Win32,60.30271965
space,0.370165,space,0.909735,,,ms_large,0,125,125,125,1,1.165,0.2,False,None,D10,r2,2021-05-01_21h27.22.482,subsecond_timing_v2,2021.1.2,Win32,60.30271965
space,0.6408,space,0.869145,,,ms_large,0,126,126,126,1,0.882,0.3,False,None,D10,r2,2021-05-01_21h27.22.482,subsecond_timing_v2,2021.1.2,Win32,60.30271965
space,0.8236,space,0.94676,,,ms_large,0,127,127,127,1,0.882,0.2,False,None,D10,r2,2021-05-01_21h27.22.482,subsecond_timing_v2,2021.1.2,Win32,60.30271965
space,0.69051,space,1.013355,,,ms_large,0,128,128,128,1,1.094,0.2,False,None,D10,r2,2021-05-01_21h27.22.482,subsecond_timing_v2,2021.1.2,Win32,60.30271965
space,0.75825,space,1.100335,,,ms_large,0,129,129,129,1,1.024,0.3,False,None,D10,r2,2021-05-01_21h27.22.482,subsecond_timing_v2,2021.1.2,Win32,60.30271965
space,0.95112,space,0.538245,,,ms_large,0,130,130,130,1,0.847,0.1,False,None,D10,r2,2021-05-01_21h27.22.482,subsecond_timing_v2,2021.1.2,Win32,60.30271965
space,0.77093,space,1.046415,,,ms_large,0,131,131,131,1,1.2,0.1,False,None,D10,r2,2021-05-01_21h27.22.482,subsecond_timing_v2,2021.1.2,Win32,60.30271965
space,0.98391,space,0.778105,,,ms_large,0,132,132,132,1,1.059,0.3,False,None,D10,r2,2021-05-01_21h27.22.482,subsecond_timing_v2,2021.1.2,Win32,60.30271965
space,0.793025,space,0.88868,,,ms_large,0,133,133,133,1,0.918,0.1,False,None,D10,r2,2021-05-01_21h27.22.482,subsecond_timing_v2,2021.1.2,Win32,60.30271965
space,0.55807,space,0.856305,,,ms_large,0,134,134,134,1,1.129,0.3,False,None,D10,r2,2021-05-01_21h27.22.482,subsecond_timing_v2,2021.1.2,Win32,60.30271965
space,0.6841,space,0.871375,,,ms_large,0,135,135,135,1,1.165,0.2,False,None,D10,r2,2021-05-01_21h27.22.482,subsecond_timing_v2,2021.1.2,Win32,60.30271965
space,0.56739,space,0.85709,,,ms_large,0,136,136,136,1,0.953,0.1,False,None,D10,r2,2021-05-01_21h27.22.482,subsecond_timing_v2,2021.1.2,Win32,60.30271965
space,0.82337,space,0.82124,,,ms_large,0,137,137,137,1,0.988,0.3,False,None,D10,r2,2021-05-01_21h27.22.482,subsecond_timing_v2,2021.1.2,Win32,60.30271965
space,0.925945,space,0.58364,,,ms_large,0,138,138,138,1,0.847,0.1,False,None,D10,r2,2021-05-01_21h27.22.482,subsecond_timing_v2,2021.1.2,Win32,60.30271965
space,0.669825,space,1.001085,,,ms_large,0,139,139,139,1,0.882,0.1,False,None,D10,r2,2021-05-01_21h27.22.482,subsecond_timing_v2,2021.1.2,Win32,60.30271965
space,0.791175,space,0.885665,,,ms_large,0,140,140,140,1,0.988,0.3,False,None,D10,r2,2021-05-01_21h27.22.482,subsecond_timing_v2,2021.1.2,Win32,60.30271965
space,0.81057,space,0.900905,,,ms_large,0,141,141,141,1,0.953,0.1,False,None,D10,r2,2021-05-01_21h27.22.482,subsecond_timing_v2,2021.1.2,Win32,60.30271965
space,0.726005,space,1.04037,,,ms_large,0,142,142,142,1,1.165,0.2,False,None,D10,r2,2021-05-01_21h27.22.482,subsecond_timing_v2,2021.1.2,Win32,60.30271965
space,0.883475,space,0.843605,,,ms_large,0,143,143,143,1,1.059,0.3,False,None,D10,r2,2021-05-01_21h27.22.482,subsecond_timing_v2,2021.1.2,Win32,60.30271965
space,0.85006,space,0.93396,,,ms_large,0,144,144,144,1,1.2,0.1,False,None,D10,r2,2021-05-01_21h27.22.482,subsecond_timing_v2,2021.1.2,Win32,60.30271965
space,0.884305,space,1.656925,,,ms_large,0,145,145,145,1,1.094,0.2,False,None,D10,r2,2021-05-01_21h27.22.482,subsecond_timing_v2,2021.1.2,Win32,60.30271965
space,0.902125,space,0.873745,,,ms_large,0,146,146,146,1,1.024,0.3,False,None,D10,r2,2021-05-01_21h27.22.482,subsecond_timing_v2,2021.1.2,Win32,60.30271965
space,0.85128,space,0.988035,,,ms_large,0,147,147,147,1,0.918,0.2,False,None,D10,r2,2021-05-01_21h27.22.482,subsecond_timing_v2,2021.1.2,Win32,60.30271965
space,0.825965,space,1.050775,,,ms_large,0,148,148,148,1,1.129,0.3,False,None,D10,r2,2021-05-01_21h27.22.482,subsecond_timing_v2,2021.1.2,Win32,60.30271965
space,0.734105,space,1.05781,,,ms_large,0,149,149,149,1,1.165,0.3,False,None,D10,r2,2021-05-01_21h27.22.482,subsecond_timing_v2,2021.1.2,Win32,60.30271965
space,1.057185,space,0.816805,,,ms_large,0,150,150,150,1,0.882,0.1,False,None,D10,r2,2021-05-01_21h27.22.482,subsecond_timing_v2,2021.1.2,Win32,60.30271965
space,0.74281,space,1.317325,,,ms_large,0,151,151,151,1,1.2,0.2,False,None,D10,r2,2021-05-01_21h27.22.482,subsecond_timing_v2,2021.1.2,Win32,60.30271965
space,0.760345,space,1.03431,,,ms_large,0,152,152,152,1,0.953,0.3,False,None,D10,r2,2021-05-01_21h27.22.482,subsecond_timing_v2,2021.1.2,Win32,60.30271965
space,0.667355,space,0.88381,,,ms_large,0,153,153,153,1,1.059,0.3,False,None,D10,r2,2021-05-01_21h27.22.482,subsecond_timing_v2,2021.1.2,Win32,60.30271965
space,0.57892,space,1.21776,,,ms_large,0,154,154,154,1,0.918,0.2,False,None,D10,r2,2021-05-01_21h27.22.482,subsecond_timing_v2,2021.1.2,Win32,60.30271965
space,0.840715,space,1.088505,,,ms_large,0,155,155,155,1,0.847,0.2,False,None,D10,r2,2021-05-01_21h27.22.482,subsecond_timing_v2,2021.1.2,Win32,60.30271965
space,0.800965,space,1.0464,,,ms_large,0,156,156,156,1,1.129,0.3,False,None,D10,r2,2021-05-01_21h27.22.482,subsecond_timing_v2,2021.1.2,Win32,60.30271965
space,0.638985,space,1.234195,,,ms_large,0,157,157,157,1,1.024,0.1,False,None,D10,r2,2021-05-01_21h27.22.482,subsecond_timing_v2,2021.1.2,Win32,60.30271965
space,0.725485,space,1.111565,,,ms_large,0,158,158,158,1,0.988,0.2,False,None,D10,r2,2021-05-01_21h27.22.482,subsecond_timing_v2,2021.1.2,Win32,60.30271965
space,0.817265,space,0.93741,,,ms_large,0,159,159,159,1,1.094,0.2,False,None,D10,r2,2021-05-01_21h27.22.482,subsecond_timing_v2,2021.1.2,Win32,60.30271965
space,0.86766,space,0.925905,,,ms_large,0,160,160,160,1,1.129,0.2,False,None,D10,r2,2021-05-01_21h27.22.482,subsecond_timing_v2,2021.1.2,Win32,60.30271965
space,0.567635,space,1.03354,,,ms_large,0,161,161,161,1,0.953,0.2,False,None,D10,r2,2021-05-01_21h27.22.482,subsecond_timing_v2,2021.1.2,Win32,60.30271965
space,0.700425,space,0.996955,,,ms_large,0,162,162,162,1,0.847,0.3,False,None,D10,r2,2021-05-01_21h27.22.482,subsecond_timing_v2,2021.1.2,Win32,60.30271965
space,0.750635,space,0.91785,,,ms_large,0,163,163,163,1,0.988,0.1,False,None,D10,r2,2021-05-01_21h27.22.482,subsecond_timing_v2,2021.1.2,Win32,60.30271965
space,0.80082,space,0.904425,,,ms_large,0,164,164,164,1,0.882,0.1,False,None,D10,r2,2021-05-01_21h27.22.482,subsecond_timing_v2,2021.1.2,Win32,60.30271965
space,0.96747,space,1.07181,,,ms_large,0,165,165,165,1,1.094,0.1,False,None,D10,r2,2021-05-01_21h27.22.482,subsecond_timing_v2,2021.1.2,Win32,60.30271965
space,0.742985,space,1.00372,,,ms_large,0,166,166,166,1,0.918,0.2,False,None,D10,r2,2021-05-01_21h27.22.482,subsecond_timing_v2,2021.1.2,Win32,60.30271965
space,0.83947,space,1.2178,,,ms_large,0,167,167,167,1,1.024,0.3,False,None,D10,r2,2021-05-01_21h27.22.482,subsecond_timing_v2,2021.1.2,Win32,60.30271965
space,0.79379,space,1.758285,,,ms_large,0,168,168,168,1,1.059,0.1,False,None,D10,r2,2021-05-01_21h27.22.482,subsecond_timing_v2,2021.1.2,Win32,60.30271965
space,0.67605,space,1.246295,,,ms_large,0,169,169,169,1,1.2,0.3,False,None,D10,r2,2021-05-01_21h27.22.482,subsecond_timing_v2,2021.1.2,Win32,60.30271965
space,1.058825,space,1.125685,,,ms_large,0,170,170,170,1,1.165,0.3,False,None,D10,r2,2021-05-01_21h27.22.482,subsecond_timing_v2,2021.1.2,Win32,60.30271965
space,0.587945,space,1.00057,,,ms_large,0,171,171,171,1,1.094,0.1,False,None,D10,r2,2021-05-01_21h27.22.482,subsecond_timing_v2,2021.1.2,Win32,60.30271965
space,0.973545,space,0.920445,,,ms_large,0,172,172,172,1,1.024,0.1,False,None,D10,r2,2021-05-01_21h27.22.482,subsecond_timing_v2,2021.1.2,Win32,60.30271965
space,0.77563,space,0.90162,,,ms_large,0,173,173,173,1,0.988,0.2,False,None,D10,r2,2021-05-01_21h27.22.482,subsecond_timing_v2,2021.1.2,Win32,60.30271965
space,0.65059,space,1.017215,,,ms_large,0,174,174,174,1,1.165,0.3,False,None,D10,r2,2021-05-01_21h27.22.482,subsecond_timing_v2,2021.1.2,Win32,60.30271965
space,0.666855,space,0.66958,,,ms_large,0,175,175,175,1,0.847,0.1,False,None,D10,r2,2021-05-01_21h27.22.482,subsecond_timing_v2,2021.1.2,Win32,60.30271965
space,0.55062,space,0.97929,,,ms_large,0,176,176,176,1,1.2,0.1,False,None,D10,r2,2021-05-01_21h27.22.482,subsecond_timing_v2,2021.1.2,Win32,60.30271965
space,0.834465,space,0.88843,,,ms_large,0,177,177,177,1,0.882,0.1,False,None,D10,r2,2021-05-01_21h27.22.482,subsecond_timing_v2,2021.1.2,Win32,60.30271965
space,0.650635,space,0.77423,,,ms_large,0,178,178,178,1,1.129,0.1,False,None,D10,r2,2021-05-01_21h27.22.482,subsecond_timing_v2,2021.1.2,Win32,60.30271965
space,0.654385,space,0.917055,,,ms_large,0,179,179,179,1,0.953,0.1,False,None,D10,r2,2021-05-01_21h27.22.482,subsecond_timing_v2,2021.1.2,Win32,60.30271965
space,0.77005,space,1.05928,,,ms_large,0,180,180,180,1,0.918,0.3,False,None,D10,r2,2021-05-01_21h27.22.482,subsecond_timing_v2,2021.1.2,Win32,60.30271965
space,0.80081,space,1.035805,,,ms_large,0,181,181,181,1,1.059,0.2,False,None,D10,r2,2021-05-01_21h27.22.482,subsecond_timing_v2,2021.1.2,Win32,60.30271965
space,0.55762,space,0.9535,,,ms_large,0,182,182,182,1,1.165,0.1,False,None,D10,r2,2021-05-01_21h27.22.482,subsecond_timing_v2,2021.1.2,Win32,60.30271965
space,0.82791,space,1.233555,,,ms_large,0,183,183,183,1,1.024,0.3,False,None,D10,r2,2021-05-01_21h27.22.482,subsecond_timing_v2,2021.1.2,Win32,60.30271965
space,0.96928,space,0.767805,,,ms_large,0,184,184,184,1,1.2,0.2,False,None,D10,r2,2021-05-01_21h27.22.482,subsecond_timing_v2,2021.1.2,Win32,60.30271965
space,0.846145,space,1.13448,,,ms_large,0,185,185,185,1,0.882,0.3,False,None,D10,r2,2021-05-01_21h27.22.482,subsecond_timing_v2,2021.1.2,Win32,60.30271965
space,0.82823,space,1.658835,,,ms_large,0,186,186,186,1,1.129,0.3,False,None,D10,r2,2021-05-01_21h27.22.482,subsecond_timing_v2,2021.1.2,Win32,60.30271965
space,0.85618,space,0.64013,,,ms_large,0,187,187,187,1,0.953,0.1,False,None,D10,r2,2021-05-01_21h27.22.482,subsecond_timing_v2,2021.1.2,Win32,60.30271965
space,0.783975,space,1.122555,,,ms_large,0,188,188,188,1,0.988,0.1,False,None,D10,r2,2021-05-01_21h27.22.482,subsecond_timing_v2,2021.1.2,Win32,60.30271965
space,0.755305,space,1.036275,,,ms_large,0,189,189,189,1,0.918,0.3,False,None,D10,r2,2021-05-01_21h27.22.482,subsecond_timing_v2,2021.1.2,Win32,60.30271965
space,0.774005,space,1.203525,,,ms_large,0,190,190,190,1,1.059,0.2,False,None,D10,r2,2021-05-01_21h27.22.482,subsecond_timing_v2,2021.1.2,Win32,60.30271965
space,0.752885,space,1.23753,,,ms_large,0,191,191,191,1,0.847,0.3,False,None,D10,r2,2021-05-01_21h27.22.482,subsecond_timing_v2,2021.1.2,Win32,60.30271965
space,0.784535,space,1.024265,,,ms_large,0,192,192,192,1,1.094,0.3,False,None,D10,r2,2021-05-01_21h27.22.482,subsecond_timing_v2,2021.1.2,Win32,60.30271965
space,0.800905,space,0.900655,,,ms_large,0,193,193,193,1,0.847,0.1,False,None,D10,r2,2021-05-01_21h27.22.482,subsecond_timing_v2,2021.1.2,Win32,60.30271965
space,0.758605,space,0.88405,,,ms_large,0,194,194,194,1,1.2,0.2,False,None,D10,r2,2021-05-01_21h27.22.482,subsecond_timing_v2,2021.1.2,Win32,60.30271965
space,0.763075,space,0.89028,,,ms_large,0,195,195,195,1,0.918,0.3,False,None,D10,r2,2021-05-01_21h27.22.482,subsecond_timing_v2,2021.1.2,Win32,60.30271965
space,0.820635,space,0.84093,,,ms_large,0,196,196,196,1,1.024,0.2,False,None,D10,r2,2021-05-01_21h27.22.482,subsecond_timing_v2,2021.1.2,Win32,60.30271965
space,0.760725,space,0.755685,,,ms_large,0,197,197,197,1,1.094,0.1,False,None,D10,r2,2021-05-01_21h27.22.482,subsecond_timing_v2,2021.1.2,Win32,60.30271965
space,0.80611,space,0.83462,,,ms_large,0,198,198,198,1,0.953,0.1,False,None,D10,r2,2021-05-01_21h27.22.482,subsecond_timing_v2,2021.1.2,Win32,60.30271965
space,0.70387,space,0.812745,,,ms_large,0,199,199,199,1,1.129,0.3,False,None,D10,r2,2021-05-01_21h27.22.482,subsecond_timing_v2,2021.1.2,Win32,60.30271965
space,0.950975,space,0.844375,,,ms_large,0,200,200,200,1,0.988,0.1,False,None,D10,r2,2021-05-01_21h27.22.482,subsecond_timing_v2,2021.1.2,Win32,60.30271965
space,0.89324,space,0.787895,,,ms_large,0,201,201,201,1,0.882,0.3,False,None,D10,r2,2021-05-01_21h27.22.482,subsecond_timing_v2,2021.1.2,Win32,60.30271965
space,0.88378,space,1.11219,,,ms_large,0,202,202,202,1,1.059,0.3,False,None,D10,r2,2021-05-01_21h27.22.482,subsecond_timing_v2,2021.1.2,Win32,60.30271965
space,0.64022,space,1.15821,,,ms_large,0,203,203,203,1,1.165,0.2,False,None,D10,r2,2021-05-01_21h27.22.482,subsecond_timing_v2,2021.1.2,Win32,60.30271965
space,0.700535,space,0.83419,,,ms_large,0,204,204,204,1,0.953,0.2,False,None,D10,r2,2021-05-01_21h27.22.482,subsecond_timing_v2,2021.1.2,Win32,60.30271965
space,0.711105,space,1.039035,,,ms_large,0,205,205,205,1,1.094,0.3,False,None,D10,r2,2021-05-01_21h27.22.482,subsecond_timing_v2,2021.1.2,Win32,60.30271965
space,0.70063,space,1.13029,,,ms_large,0,206,206,206,1,1.2,0.2,False,None,D10,r2,2021-05-01_21h27.22.482,subsecond_timing_v2,2021.1.2,Win32,60.30271965
space,0.684385,space,1.00082,,,ms_large,0,207,207,207,1,1.024,0.1,False,None,D10,r2,2021-05-01_21h27.22.482,subsecond_timing_v2,2021.1.2,Win32,60.30271965
space,1.094985,space,0.891275,,,ms_large,0,208,208,208,1,0.847,0.3,False,None,D10,r2,2021-05-01_21h27.22.482,subsecond_timing_v2,2021.1.2,Win32,60.30271965
space,0.788675,space,1.203865,,,ms_large,0,209,209,209,1,1.129,0.2,False,None,D10,r2,2021-05-01_21h27.22.482,subsecond_timing_v2,2021.1.2,Win32,60.30271965
space,0.83894,space,1.07897,,,ms_large,0,210,210,210,1,1.165,0.3,False,None,D10,r2,2021-05-01_21h27.22.482,subsecond_timing_v2,2021.1.2,Win32,60.30271965
space,0.512215,space,1.12436,,,ms_large,0,211,211,211,1,0.988,0.3,False,None,D10,r2,2021-05-01_21h27.22.482,subsecond_timing_v2,2021.1.2,Win32,60.30271965
space,0.767505,space,0.76758,,,ms_large,0,212,212,212,1,0.882,0.3,False,None,D10,r2,2021-05-01_21h27.22.482,subsecond_timing_v2,2021.1.2,Win32,60.30271965
space,0.68545,space,0.81714,,,ms_large,0,213,213,213,1,1.059,0.2,False,None,D10,r2,2021-05-01_21h27.22.482,subsecond_timing_v2,2021.1.2,Win32,60.30271965
space,0.92104,space,0.89656,,,ms_large,0,214,214,214,1,0.918,0.3,False,None,D10,r2,2021-05-01_21h27.22.482,subsecond_timing_v2,2021.1.2,Win32,60.30271965
space,0.834505,space,0.81786,,,ms_large,0,215,215,215,1,0.953,0.2,False,None,D10,r2,2021-05-01_21h27.22.482,subsecond_timing_v2,2021.1.2,Win32,60.30271965
space,0.85239,space,0.81729,,,ms_large,0,216,216,216,1,0.847,0.3,False,None,D10,r2,2021-05-01_21h27.22.482,subsecond_timing_v2,2021.1.2,Win32,60.30271965
space,0.977355,space,0.96771,,,ms_large,0,217,217,217,1,1.024,0.1,False,None,D10,r2,2021-05-01_21h27.22.482,subsecond_timing_v2,2021.1.2,Win32,60.30271965
space,0.77892,space,0.910645,,,ms_large,0,218,218,218,1,1.059,0.3,False,None,D10,r2,2021-05-01_21h27.22.482,subsecond_timing_v2,2021.1.2,Win32,60.30271965
space,0.82356,space,0.86692,,,ms_large,0,219,219,219,1,0.988,0.1,False,None,D10,r2,2021-05-01_21h27.22.482,subsecond_timing_v2,2021.1.2,Win32,60.30271965
space,0.75513,space,0.763035,,,ms_large,0,220,220,220,1,1.094,0.1,False,None,D10,r2,2021-05-01_21h27.22.482,subsecond_timing_v2,2021.1.2,Win32,60.30271965
space,0.74518,space,1.01961,,,ms_large,0,221,221,221,1,0.918,0.3,False,None,D10,r2,2021-05-01_21h27.22.482,subsecond_timing_v2,2021.1.2,Win32,60.30271965
space,0.83341,space,0.927305,,,ms_large,0,222,222,222,1,0.882,0.1,False,None,D10,r2,2021-05-01_21h27.22.482,subsecond_timing_v2,2021.1.2,Win32,60.30271965
space,2.286885,space,0.710925,,,ms_large,0,223,223,223,1,1.129,0.2,False,None,D10,r2,2021-05-01_21h27.22.482,subsecond_timing_v2,2021.1.2,Win32,60.30271965
space,0.62047,space,0.940415,,,ms_large,0,224,224,224,1,1.165,0.3,False,None,D10,r2,2021-05-01_21h27.22.482,subsecond_timing_v2,2021.1.2,Win32,60.30271965
space,0.75663,space,1.1106,,,ms_large,0,225,225,225,1,1.2,0.3,False,None,D10,r2,2021-05-01_21h27.22.482,subsecond_timing_v2,2021.1.2,Win32,60.30271965
