key_resp_start.keys,key_resp_start.rt,key_resp_stop.keys,key_resp_stop.rt,feedback_range,hit,stimulus_range,trials.thisRepN,trials.thisTrialN,trials.thisN,trials.thisIndex,trials.ran,stimulus_duration,onset,feedback,feedback_range_fromfile,participant,session,date,expName,psychopyVersion,OS,frameRate
space,0.95767,space,0.7865,0.3,TRUE,Training,0,0,0,0,1,1,0.3,True,0.3,D11,r1,2021-05-04_22h15.59.305,subsecond_timing_v2,2021.1.2,Win32,60.04924038
space,1.039695,space,0.61959,0.3,TRUE,Training,0,1,1,1,1,0.75,0.1,True,0.3,D11,r1,2021-05-04_22h15.59.305,subsecond_timing_v2,2021.1.2,Win32,60.04924038
space,0.80541,space,0.472745,0.3,TRUE,Training,0,2,2,2,1,0.5,0.1,True,0.3,D11,r1,2021-05-04_22h15.59.305,subsecond_timing_v2,2021.1.2,Win32,60.04924038
space,0.90964,space,0.434615,0.3,TRUE,Training,0,3,3,3,1,0.5,0.2,True,0.3,D11,r1,2021-05-04_22h15.59.305,subsecond_timing_v2,2021.1.2,Win32,60.04924038
space,1.15326,space,0.89956,0.3,TRUE,Training,0,4,4,4,1,0.75,0.2,True,0.3,D11,r1,2021-05-04_22h15.59.305,subsecond_timing_v2,2021.1.2,Win32,60.04924038
space,1.177495,space,1.08601,0.3,TRUE,Training,0,5,5,5,1,1,0.3,True,0.3,D11,r1,2021-05-04_22h15.59.305,subsecond_timing_v2,2021.1.2,Win32,60.04924038
space,1.01573,space,0.66817,,,ms_small,0,6,6,6,1,0.706,0.2,False,None,D11,r1,2021-05-04_22h15.59.305,subsecond_timing_v2,2021.1.2,Win32,60.04924038
space,1.077515,space,0.86678,,,ms_small,0,7,7,7,1,0.812,0.3,False,None,D11,r1,2021-05-04_22h15.59.305,subsecond_timing_v2,2021.1.2,Win32,60.04924038
space,1.101415,space,0.890175,,,ms_small,0,8,8,8,1,0.847,0.1,False,None,D11,r1,2021-05-04_22h15.59.305,subsecond_timing_v2,2021.1.2,Win32,60.04924038
space,0.99722,space,0.717775,,,ms_small,0,9,9,9,1,0.67,0.3,False,None,D11,r1,2021-05-04_22h15.59.305,subsecond_timing_v2,2021.1.2,Win32,60.04924038
space,0.796705,space,1.157285,,,ms_small,0,10,10,10,1,0.988,0.1,False,None,D11,r1,2021-05-04_22h15.59.305,subsecond_timing_v2,2021.1.2,Win32,60.04924038
space,0.983825,space,1.085725,,,ms_small,0,11,11,11,1,0.953,0.1,False,None,D11,r1,2021-05-04_22h15.59.305,subsecond_timing_v2,2021.1.2,Win32,60.04924038
space,1.190155,space,1.167155,,,ms_small,0,12,12,12,1,0.882,0.3,False,None,D11,r1,2021-05-04_22h15.59.305,subsecond_timing_v2,2021.1.2,Win32,60.04924038
space,0.9342,space,0.753145,,,ms_small,0,13,13,13,1,0.918,0.1,False,None,D11,r1,2021-05-04_22h15.59.305,subsecond_timing_v2,2021.1.2,Win32,60.04924038
space,0.93854,space,0.74268,,,ms_small,0,14,14,14,1,0.776,0.2,False,None,D11,r1,2021-05-04_22h15.59.305,subsecond_timing_v2,2021.1.2,Win32,60.04924038
space,0.93448,space,0.79546,,,ms_small,0,15,15,15,1,0.741,0.3,False,None,D11,r1,2021-05-04_22h15.59.305,subsecond_timing_v2,2021.1.2,Win32,60.04924038
space,0.85085,space,1.13419,,,ms_small,0,16,16,16,1,1.024,0.3,False,None,D11,r1,2021-05-04_22h15.59.305,subsecond_timing_v2,2021.1.2,Win32,60.04924038
space,0.96844,space,0.70937,,,ms_small,0,17,17,17,1,0.67,0.1,False,None,D11,r1,2021-05-04_22h15.59.305,subsecond_timing_v2,2021.1.2,Win32,60.04924038
space,0.811475,space,1.01764,,,ms_small,0,18,18,18,1,0.812,0.3,False,None,D11,r1,2021-05-04_22h15.59.305,subsecond_timing_v2,2021.1.2,Win32,60.04924038
space,1.1511,space,1.095165,,,ms_small,0,19,19,19,1,0.953,0.3,False,None,D11,r1,2021-05-04_22h15.59.305,subsecond_timing_v2,2021.1.2,Win32,60.04924038
space,0.990995,space,0.739675,,,ms_small,0,20,20,20,1,0.776,0.1,False,None,D11,r1,2021-05-04_22h15.59.305,subsecond_timing_v2,2021.1.2,Win32,60.04924038
space,0.940605,space,0.69902,,,ms_small,0,21,21,21,1,0.741,0.2,False,None,D11,r1,2021-05-04_22h15.59.305,subsecond_timing_v2,2021.1.2,Win32,60.04924038
space,0.91693,space,0.719405,,,ms_small,0,22,22,22,1,0.847,0.2,False,None,D11,r1,2021-05-04_22h15.59.305,subsecond_timing_v2,2021.1.2,Win32,60.04924038
space,1.06925,space,1.200905,,,ms_small,0,23,23,23,1,1.024,0.1,False,None,D11,r1,2021-05-04_22h15.59.305,subsecond_timing_v2,2021.1.2,Win32,60.04924038
space,0.868345,space,0.827355,,,ms_small,0,24,24,24,1,0.882,0.3,False,None,D11,r1,2021-05-04_22h15.59.305,subsecond_timing_v2,2021.1.2,Win32,60.04924038
space,0.820235,space,1.00111,,,ms_small,0,25,25,25,1,0.988,0.1,False,None,D11,r1,2021-05-04_22h15.59.305,subsecond_timing_v2,2021.1.2,Win32,60.04924038
space,0.791215,space,0.658145,,,ms_small,0,26,26,26,1,0.706,0.2,False,None,D11,r1,2021-05-04_22h15.59.305,subsecond_timing_v2,2021.1.2,Win32,60.04924038
space,0.76895,space,0.9015,,,ms_small,0,27,27,27,1,0.918,0.3,False,None,D11,r1,2021-05-04_22h15.59.305,subsecond_timing_v2,2021.1.2,Win32,60.04924038
space,0.743305,space,0.68523,,,ms_small,0,28,28,28,1,0.706,0.1,False,None,D11,r1,2021-05-04_22h15.59.305,subsecond_timing_v2,2021.1.2,Win32,60.04924038
space,0.945295,space,0.733995,,,ms_small,0,29,29,29,1,0.918,0.1,False,None,D11,r1,2021-05-04_22h15.59.305,subsecond_timing_v2,2021.1.2,Win32,60.04924038
space,0.833545,space,0.485645,,,ms_small,0,30,30,30,1,0.67,0.2,False,None,D11,r1,2021-05-04_22h15.59.305,subsecond_timing_v2,2021.1.2,Win32,60.04924038
space,0.643995,space,1.119565,,,ms_small,0,31,31,31,1,0.988,0.1,False,None,D11,r1,2021-05-04_22h15.59.305,subsecond_timing_v2,2021.1.2,Win32,60.04924038
space,0.854245,space,1.00233,,,ms_small,0,32,32,32,1,0.953,0.2,False,None,D11,r1,2021-05-04_22h15.59.305,subsecond_timing_v2,2021.1.2,Win32,60.04924038
space,0.940335,space,0.83314,,,ms_small,0,33,33,33,1,0.776,0.1,False,None,D11,r1,2021-05-04_22h15.59.305,subsecond_timing_v2,2021.1.2,Win32,60.04924038
space,0.93396,space,0.88921,,,ms_small,0,34,34,34,1,0.847,0.1,False,None,D11,r1,2021-05-04_22h15.59.305,subsecond_timing_v2,2021.1.2,Win32,60.04924038
space,0.83492,space,0.62149,,,ms_small,0,35,35,35,1,0.741,0.2,False,None,D11,r1,2021-05-04_22h15.59.305,subsecond_timing_v2,2021.1.2,Win32,60.04924038
space,0.793175,space,0.70474,,,ms_small,0,36,36,36,1,0.812,0.1,False,None,D11,r1,2021-05-04_22h15.59.305,subsecond_timing_v2,2021.1.2,Win32,60.04924038
space,0.810855,space,0.772625,,,ms_small,0,37,37,37,1,0.882,0.1,False,None,D11,r1,2021-05-04_22h15.59.305,subsecond_timing_v2,2021.1.2,Win32,60.04924038
space,0.855635,space,1.185215,,,ms_small,0,38,38,38,1,1.024,0.3,False,None,D11,r1,2021-05-04_22h15.59.305,subsecond_timing_v2,2021.1.2,Win32,60.04924038
space,0.8012,space,1.05274,,,ms_small,0,39,39,39,1,0.847,0.2,False,None,D11,r1,2021-05-04_22h15.59.305,subsecond_timing_v2,2021.1.2,Win32,60.04924038
space,0.801515,space,0.934965,,,ms_small,0,40,40,40,1,0.918,0.2,False,None,D11,r1,2021-05-04_22h15.59.305,subsecond_timing_v2,2021.1.2,Win32,60.04924038
space,0.810125,space,0.92216,,,ms_small,0,41,41,41,1,0.953,0.1,False,None,D11,r1,2021-05-04_22h15.59.305,subsecond_timing_v2,2021.1.2,Win32,60.04924038
space,0.69531,space,1.08857,,,ms_small,0,42,42,42,1,0.882,0.3,False,None,D11,r1,2021-05-04_22h15.59.305,subsecond_timing_v2,2021.1.2,Win32,60.04924038
space,0.987985,space,0.79362,,,ms_small,0,43,43,43,1,0.741,0.2,False,None,D11,r1,2021-05-04_22h15.59.305,subsecond_timing_v2,2021.1.2,Win32,60.04924038
space,0.884835,space,0.68341,,,ms_small,0,44,44,44,1,0.67,0.3,False,None,D11,r1,2021-05-04_22h15.59.305,subsecond_timing_v2,2021.1.2,Win32,60.04924038
space,0.785025,space,1.04267,,,ms_small,0,45,45,45,1,0.812,0.2,False,None,D11,r1,2021-05-04_22h15.59.305,subsecond_timing_v2,2021.1.2,Win32,60.04924038
space,0.810355,space,1.33897,,,ms_small,0,46,46,46,1,1.024,0.3,False,None,D11,r1,2021-05-04_22h15.59.305,subsecond_timing_v2,2021.1.2,Win32,60.04924038
space,0.97811,space,0.691835,,,ms_small,0,47,47,47,1,0.706,0.3,False,None,D11,r1,2021-05-04_22h15.59.305,subsecond_timing_v2,2021.1.2,Win32,60.04924038
space,0.884965,space,1.137475,,,ms_small,0,48,48,48,1,0.988,0.2,False,None,D11,r1,2021-05-04_22h15.59.305,subsecond_timing_v2,2021.1.2,Win32,60.04924038
space,0.803,space,0.5673,,,ms_small,0,49,49,49,1,0.776,0.1,False,None,D11,r1,2021-05-04_22h15.59.305,subsecond_timing_v2,2021.1.2,Win32,60.04924038
space,0.77579,space,1.134485,,,ms_small,0,50,50,50,1,0.988,0.1,False,None,D11,r1,2021-05-04_22h15.59.305,subsecond_timing_v2,2021.1.2,Win32,60.04924038
space,0.851235,space,0.827735,,,ms_small,0,51,51,51,1,0.706,0.3,False,None,D11,r1,2021-05-04_22h15.59.305,subsecond_timing_v2,2021.1.2,Win32,60.04924038
space,0.82816,space,0.87708,,,ms_small,0,52,52,52,1,0.953,0.2,False,None,D11,r1,2021-05-04_22h15.59.305,subsecond_timing_v2,2021.1.2,Win32,60.04924038
space,0.768345,space,0.571155,,,ms_small,0,53,53,53,1,0.847,0.2,False,None,D11,r1,2021-05-04_22h15.59.305,subsecond_timing_v2,2021.1.2,Win32,60.04924038
space,0.621095,space,0.74447,,,ms_small,0,54,54,54,1,0.918,0.3,False,None,D11,r1,2021-05-04_22h15.59.305,subsecond_timing_v2,2021.1.2,Win32,60.04924038
space,0.75619,space,0.56793,,,ms_small,0,55,55,55,1,0.741,0.1,False,None,D11,r1,2021-05-04_22h15.59.305,subsecond_timing_v2,2021.1.2,Win32,60.04924038
space,0.601365,space,0.360275,,,ms_small,0,56,56,56,1,0.67,0.1,False,None,D11,r1,2021-05-04_22h15.59.305,subsecond_timing_v2,2021.1.2,Win32,60.04924038
space,0.701805,space,0.62616,,,ms_small,0,57,57,57,1,0.776,0.2,False,None,D11,r1,2021-05-04_22h15.59.305,subsecond_timing_v2,2021.1.2,Win32,60.04924038
space,0.71844,space,0.629515,,,ms_small,0,58,58,58,1,0.882,0.1,False,None,D11,r1,2021-05-04_22h15.59.305,subsecond_timing_v2,2021.1.2,Win32,60.04924038
space,0.63453,space,0.72609,,,ms_small,0,59,59,59,1,0.812,0.2,False,None,D11,r1,2021-05-04_22h15.59.305,subsecond_timing_v2,2021.1.2,Win32,60.04924038
space,0.628535,space,0.703125,,,ms_small,0,60,60,60,1,1.024,0.2,False,None,D11,r1,2021-05-04_22h15.59.305,subsecond_timing_v2,2021.1.2,Win32,60.04924038
space,0.58921,space,0.733815,,,ms_small,0,61,61,61,1,0.847,0.3,False,None,D11,r1,2021-05-04_22h15.59.305,subsecond_timing_v2,2021.1.2,Win32,60.04924038
space,0.66977,space,0.235135,,,ms_small,0,62,62,62,1,0.67,0.1,False,None,D11,r1,2021-05-04_22h15.59.305,subsecond_timing_v2,2021.1.2,Win32,60.04924038
space,0.68408,space,0.794685,,,ms_small,0,63,63,63,1,0.988,0.3,False,None,D11,r1,2021-05-04_22h15.59.305,subsecond_timing_v2,2021.1.2,Win32,60.04924038
space,0.608855,space,0.7506,,,ms_small,0,64,64,64,1,0.812,0.1,False,None,D11,r1,2021-05-04_22h15.59.305,subsecond_timing_v2,2021.1.2,Win32,60.04924038
space,0.73417,space,0.67674,,,ms_small,0,65,65,65,1,0.882,0.3,False,None,D11,r1,2021-05-04_22h15.59.305,subsecond_timing_v2,2021.1.2,Win32,60.04924038
space,0.7747,space,0.834035,,,ms_small,0,66,66,66,1,0.918,0.1,False,None,D11,r1,2021-05-04_22h15.59.305,subsecond_timing_v2,2021.1.2,Win32,60.04924038
space,0.61855,space,1.055365,,,ms_small,0,67,67,67,1,1.024,0.1,False,None,D11,r1,2021-05-04_22h15.59.305,subsecond_timing_v2,2021.1.2,Win32,60.04924038
space,0.53491,space,0.60419,,,ms_small,0,68,68,68,1,0.776,0.2,False,None,D11,r1,2021-05-04_22h15.59.305,subsecond_timing_v2,2021.1.2,Win32,60.04924038
space,0.677995,space,0.809805,,,ms_small,0,69,69,69,1,0.953,0.1,False,None,D11,r1,2021-05-04_22h15.59.305,subsecond_timing_v2,2021.1.2,Win32,60.04924038
space,0.60836,space,0.63389,,,ms_small,0,70,70,70,1,0.706,0.1,False,None,D11,r1,2021-05-04_22h15.59.305,subsecond_timing_v2,2021.1.2,Win32,60.04924038
space,0.6118,space,0.828225,,,ms_small,0,71,71,71,1,0.741,0.3,False,None,D11,r1,2021-05-04_22h15.59.305,subsecond_timing_v2,2021.1.2,Win32,60.04924038
space,0.692335,space,0.802215,,,ms_small,0,72,72,72,1,0.882,0.2,False,None,D11,r1,2021-05-04_22h15.59.305,subsecond_timing_v2,2021.1.2,Win32,60.04924038
space,0.720205,space,0.65212,,,ms_small,0,73,73,73,1,0.918,0.3,False,None,D11,r1,2021-05-04_22h15.59.305,subsecond_timing_v2,2021.1.2,Win32,60.04924038
space,0.671345,space,1.03353,,,ms_small,0,74,74,74,1,0.988,0.2,False,None,D11,r1,2021-05-04_22h15.59.305,subsecond_timing_v2,2021.1.2,Win32,60.04924038
space,0.607795,space,0.64691,,,ms_small,0,75,75,75,1,0.67,0.1,False,None,D11,r1,2021-05-04_22h15.59.305,subsecond_timing_v2,2021.1.2,Win32,60.04924038
space,0.60084,space,0.45448,,,ms_small,0,76,76,76,1,0.776,0.3,False,None,D11,r1,2021-05-04_22h15.59.305,subsecond_timing_v2,2021.1.2,Win32,60.04924038
space,0.68896,space,0.767345,,,ms_small,0,77,77,77,1,0.847,0.2,False,None,D11,r1,2021-05-04_22h15.59.305,subsecond_timing_v2,2021.1.2,Win32,60.04924038
space,0.695345,space,0.807735,,,ms_small,0,78,78,78,1,1.024,0.2,False,None,D11,r1,2021-05-04_22h15.59.305,subsecond_timing_v2,2021.1.2,Win32,60.04924038
space,0.979275,space,0.736015,,,ms_small,0,79,79,79,1,0.812,0.3,False,None,D11,r1,2021-05-04_22h15.59.305,subsecond_timing_v2,2021.1.2,Win32,60.04924038
space,0.625515,space,0.762285,,,ms_small,0,80,80,80,1,0.953,0.1,False,None,D11,r1,2021-05-04_22h15.59.305,subsecond_timing_v2,2021.1.2,Win32,60.04924038
space,0.634775,space,0.478665,,,ms_small,0,81,81,81,1,0.706,0.2,False,None,D11,r1,2021-05-04_22h15.59.305,subsecond_timing_v2,2021.1.2,Win32,60.04924038
space,0.567455,space,0.67001,,,ms_small,0,82,82,82,1,0.741,0.3,False,None,D11,r1,2021-05-04_22h15.59.305,subsecond_timing_v2,2021.1.2,Win32,60.04924038
space,0.734805,space,0.555185,,,ms_small,0,83,83,83,1,0.706,0.1,False,None,D11,r1,2021-05-04_22h15.59.305,subsecond_timing_v2,2021.1.2,Win32,60.04924038
space,0.675765,space,0.841725,,,ms_small,0,84,84,84,1,0.812,0.2,False,None,D11,r1,2021-05-04_22h15.59.305,subsecond_timing_v2,2021.1.2,Win32,60.04924038
space,0.687415,space,0.817355,,,ms_small,0,85,85,85,1,0.882,0.2,False,None,D11,r1,2021-05-04_22h15.59.305,subsecond_timing_v2,2021.1.2,Win32,60.04924038
space,0.751765,space,0.883225,,,ms_small,0,86,86,86,1,0.776,0.1,False,None,D11,r1,2021-05-04_22h15.59.305,subsecond_timing_v2,2021.1.2,Win32,60.04924038
space,0.736055,space,0.735535,,,ms_small,0,87,87,87,1,0.988,0.3,False,None,D11,r1,2021-05-04_22h15.59.305,subsecond_timing_v2,2021.1.2,Win32,60.04924038
space,0.850685,space,0.845805,,,ms_small,0,88,88,88,1,0.67,0.2,False,None,D11,r1,2021-05-04_22h15.59.305,subsecond_timing_v2,2021.1.2,Win32,60.04924038
space,0.80099,space,0.840325,,,ms_small,0,89,89,89,1,0.741,0.3,False,None,D11,r1,2021-05-04_22h15.59.305,subsecond_timing_v2,2021.1.2,Win32,60.04924038
space,0.872325,space,0.773195,,,ms_small,0,90,90,90,1,0.918,0.1,False,None,D11,r1,2021-05-04_22h15.59.305,subsecond_timing_v2,2021.1.2,Win32,60.04924038
space,0.85201,space,0.78838,,,ms_small,0,91,91,91,1,0.847,0.3,False,None,D11,r1,2021-05-04_22h15.59.305,subsecond_timing_v2,2021.1.2,Win32,60.04924038
space,0.806935,space,1.150335,,,ms_small,0,92,92,92,1,0.953,0.2,False,None,D11,r1,2021-05-04_22h15.59.305,subsecond_timing_v2,2021.1.2,Win32,60.04924038
space,0.808345,space,1.184775,,,ms_small,0,93,93,93,1,1.024,0.2,False,None,D11,r1,2021-05-04_22h15.59.305,subsecond_timing_v2,2021.1.2,Win32,60.04924038
space,0.752745,space,1.17351,,,ms_small,0,94,94,94,1,0.882,0.1,False,None,D11,r1,2021-05-04_22h15.59.305,subsecond_timing_v2,2021.1.2,Win32,60.04924038
space,0.78451,space,0.71889,,,ms_small,0,95,95,95,1,0.67,0.2,False,None,D11,r1,2021-05-04_22h15.59.305,subsecond_timing_v2,2021.1.2,Win32,60.04924038
space,0.7185,space,1.243865,,,ms_small,0,96,96,96,1,0.918,0.3,False,None,D11,r1,2021-05-04_22h15.59.305,subsecond_timing_v2,2021.1.2,Win32,60.04924038
space,0.71931,space,0.92066,,,ms_small,0,97,97,97,1,0.706,0.2,False,None,D11,r1,2021-05-04_22h15.59.305,subsecond_timing_v2,2021.1.2,Win32,60.04924038
space,0.718125,space,1.237125,,,ms_small,0,98,98,98,1,0.988,0.1,False,None,D11,r1,2021-05-04_22h15.59.305,subsecond_timing_v2,2021.1.2,Win32,60.04924038
space,0.734555,space,0.673545,,,ms_small,0,99,99,99,1,0.741,0.3,False,None,D11,r1,2021-05-04_22h15.59.305,subsecond_timing_v2,2021.1.2,Win32,60.04924038
space,0.821545,space,1.409895,,,ms_small,0,100,100,100,1,1.024,0.2,False,None,D11,r1,2021-05-04_22h15.59.305,subsecond_timing_v2,2021.1.2,Win32,60.04924038
space,0.833745,space,0.80077,,,ms_small,0,101,101,101,1,0.776,0.2,False,None,D11,r1,2021-05-04_22h15.59.305,subsecond_timing_v2,2021.1.2,Win32,60.04924038
space,0.70073,space,0.99337,,,ms_small,0,102,102,102,1,0.812,0.2,False,None,D11,r1,2021-05-04_22h15.59.305,subsecond_timing_v2,2021.1.2,Win32,60.04924038
space,0.6026,space,1.19472,,,ms_small,0,103,103,103,1,0.953,0.2,False,None,D11,r1,2021-05-04_22h15.59.305,subsecond_timing_v2,2021.1.2,Win32,60.04924038
space,0.61872,space,0.968615,,,ms_small,0,104,104,104,1,0.847,0.1,False,None,D11,r1,2021-05-04_22h15.59.305,subsecond_timing_v2,2021.1.2,Win32,60.04924038
space,0.817975,space,1.134015,,,ms_small,0,105,105,105,1,0.706,0.2,False,None,D11,r1,2021-05-04_22h15.59.305,subsecond_timing_v2,2021.1.2,Win32,60.04924038
space,0.758975,space,0.633995,,,ms_small,0,106,106,106,1,0.741,0.1,False,None,D11,r1,2021-05-04_22h15.59.305,subsecond_timing_v2,2021.1.2,Win32,60.04924038
space,0.775385,space,0.55187,,,ms_small,0,107,107,107,1,0.67,0.1,False,None,D11,r1,2021-05-04_22h15.59.305,subsecond_timing_v2,2021.1.2,Win32,60.04924038
space,0.70065,space,0.896185,,,ms_small,0,108,108,108,1,0.847,0.1,False,None,D11,r1,2021-05-04_22h15.59.305,subsecond_timing_v2,2021.1.2,Win32,60.04924038
space,0.67819,space,0.788265,,,ms_small,0,109,109,109,1,0.812,0.2,False,None,D11,r1,2021-05-04_22h15.59.305,subsecond_timing_v2,2021.1.2,Win32,60.04924038
space,0.776775,space,0.86787,,,ms_small,0,110,110,110,1,0.776,0.3,False,None,D11,r1,2021-05-04_22h15.59.305,subsecond_timing_v2,2021.1.2,Win32,60.04924038
space,0.833195,space,1.30709,,,ms_small,0,111,111,111,1,0.988,0.3,False,None,D11,r1,2021-05-04_22h15.59.305,subsecond_timing_v2,2021.1.2,Win32,60.04924038
space,0.75382,space,0.912225,,,ms_small,0,112,112,112,1,0.918,0.1,False,None,D11,r1,2021-05-04_22h15.59.305,subsecond_timing_v2,2021.1.2,Win32,60.04924038
space,0.652245,space,0.80084,,,ms_small,0,113,113,113,1,0.882,0.1,False,None,D11,r1,2021-05-04_22h15.59.305,subsecond_timing_v2,2021.1.2,Win32,60.04924038
space,0.712385,space,0.96767,,,ms_small,0,114,114,114,1,1.024,0.2,False,None,D11,r1,2021-05-04_22h15.59.305,subsecond_timing_v2,2021.1.2,Win32,60.04924038
space,0.957165,space,0.95479,,,ms_small,0,115,115,115,1,0.953,0.2,False,None,D11,r1,2021-05-04_22h15.59.305,subsecond_timing_v2,2021.1.2,Win32,60.04924038
space,1.006085,space,0.95104,,,ms_small,0,116,116,116,1,0.847,0.3,False,None,D11,r1,2021-05-04_22h15.59.305,subsecond_timing_v2,2021.1.2,Win32,60.04924038
space,1.083615,space,0.959745,,,ms_small,0,117,117,117,1,0.882,0.2,False,None,D11,r1,2021-05-04_22h15.59.305,subsecond_timing_v2,2021.1.2,Win32,60.04924038
space,0.78453,space,0.86789,,,ms_small,0,118,118,118,1,1.024,0.1,False,None,D11,r1,2021-05-04_22h15.59.305,subsecond_timing_v2,2021.1.2,Win32,60.04924038
space,0.86944,space,0.55033,,,ms_small,0,119,119,119,1,0.706,0.2,False,None,D11,r1,2021-05-04_22h15.59.305,subsecond_timing_v2,2021.1.2,Win32,60.04924038
space,0.61835,space,0.887595,,,ms_small,0,120,120,120,1,0.918,0.1,False,None,D11,r1,2021-05-04_22h15.59.305,subsecond_timing_v2,2021.1.2,Win32,60.04924038
space,0.573895,space,0.58484,,,ms_small,0,121,121,121,1,0.776,0.1,False,None,D11,r1,2021-05-04_22h15.59.305,subsecond_timing_v2,2021.1.2,Win32,60.04924038
space,0.75069,space,0.87489,,,ms_small,0,122,122,122,1,0.953,0.3,False,None,D11,r1,2021-05-04_22h15.59.305,subsecond_timing_v2,2021.1.2,Win32,60.04924038
space,0.78343,space,0.50133,,,ms_small,0,123,123,123,1,0.67,0.1,False,None,D11,r1,2021-05-04_22h15.59.305,subsecond_timing_v2,2021.1.2,Win32,60.04924038
space,0.695605,space,0.8682,,,ms_small,0,124,124,124,1,0.812,0.2,False,None,D11,r1,2021-05-04_22h15.59.305,subsecond_timing_v2,2021.1.2,Win32,60.04924038
space,0.67285,space,1.32204,,,ms_small,0,125,125,125,1,0.988,0.2,False,None,D11,r1,2021-05-04_22h15.59.305,subsecond_timing_v2,2021.1.2,Win32,60.04924038
space,0.76088,space,0.620085,,,ms_small,0,126,126,126,1,0.741,0.3,False,None,D11,r1,2021-05-04_22h15.59.305,subsecond_timing_v2,2021.1.2,Win32,60.04924038
space,0.6728,space,0.50526,,,ms_small,0,127,127,127,1,0.67,0.1,False,None,D11,r1,2021-05-04_22h15.59.305,subsecond_timing_v2,2021.1.2,Win32,60.04924038
space,0.76076,space,0.5968,,,ms_small,0,128,128,128,1,0.776,0.3,False,None,D11,r1,2021-05-04_22h15.59.305,subsecond_timing_v2,2021.1.2,Win32,60.04924038
space,0.81837,space,0.90142,,,ms_small,0,129,129,129,1,0.847,0.1,False,None,D11,r1,2021-05-04_22h15.59.305,subsecond_timing_v2,2021.1.2,Win32,60.04924038
space,0.66208,space,1.4397,,,ms_small,0,130,130,130,1,0.812,0.1,False,None,D11,r1,2021-05-04_22h15.59.305,subsecond_timing_v2,2021.1.2,Win32,60.04924038
space,0.624085,space,0.900005,,,ms_small,0,131,131,131,1,0.882,0.1,False,None,D11,r1,2021-05-04_22h15.59.305,subsecond_timing_v2,2021.1.2,Win32,60.04924038
space,0.61758,space,0.900355,,,ms_small,0,132,132,132,1,1.024,0.2,False,None,D11,r1,2021-05-04_22h15.59.305,subsecond_timing_v2,2021.1.2,Win32,60.04924038
space,0.53543,space,0.868455,,,ms_small,0,133,133,133,1,0.953,0.3,False,None,D11,r1,2021-05-04_22h15.59.305,subsecond_timing_v2,2021.1.2,Win32,60.04924038
space,0.658495,space,0.89545,,,ms_small,0,134,134,134,1,0.988,0.2,False,None,D11,r1,2021-05-04_22h15.59.305,subsecond_timing_v2,2021.1.2,Win32,60.04924038
space,0.567635,space,0.57013,,,ms_small,0,135,135,135,1,0.706,0.1,False,None,D11,r1,2021-05-04_22h15.59.305,subsecond_timing_v2,2021.1.2,Win32,60.04924038
space,0.57336,space,0.817735,,,ms_small,0,136,136,136,1,0.918,0.1,False,None,D11,r1,2021-05-04_22h15.59.305,subsecond_timing_v2,2021.1.2,Win32,60.04924038
space,0.509755,space,0.83816,,,ms_small,0,137,137,137,1,0.741,0.1,False,None,D11,r1,2021-05-04_22h15.59.305,subsecond_timing_v2,2021.1.2,Win32,60.04924038
space,0.51805,space,0.5253,,,ms_small,0,138,138,138,1,0.741,0.3,False,None,D11,r1,2021-05-04_22h15.59.305,subsecond_timing_v2,2021.1.2,Win32,60.04924038
space,0.61321,space,0.69005,,,ms_small,0,139,139,139,1,0.988,0.2,False,None,D11,r1,2021-05-04_22h15.59.305,subsecond_timing_v2,2021.1.2,Win32,60.04924038
space,0.621035,space,0.771345,,,ms_small,0,140,140,140,1,0.812,0.3,False,None,D11,r1,2021-05-04_22h15.59.305,subsecond_timing_v2,2021.1.2,Win32,60.04924038
space,0.71811,space,0.93404,,,ms_small,0,141,141,141,1,0.918,0.2,False,None,D11,r1,2021-05-04_22h15.59.305,subsecond_timing_v2,2021.1.2,Win32,60.04924038
space,0.821615,space,0.7592,,,ms_small,0,142,142,142,1,0.847,0.2,False,None,D11,r1,2021-05-04_22h15.59.305,subsecond_timing_v2,2021.1.2,Win32,60.04924038
space,0.68444,space,0.661265,,,ms_small,0,143,143,143,1,0.953,0.1,False,None,D11,r1,2021-05-04_22h15.59.305,subsecond_timing_v2,2021.1.2,Win32,60.04924038
space,0.68581,space,0.756525,,,ms_small,0,144,144,144,1,0.776,0.3,False,None,D11,r1,2021-05-04_22h15.59.305,subsecond_timing_v2,2021.1.2,Win32,60.04924038
space,0.635275,space,0.611175,,,ms_small,0,145,145,145,1,0.706,0.3,False,None,D11,r1,2021-05-04_22h15.59.305,subsecond_timing_v2,2021.1.2,Win32,60.04924038
space,0.688655,space,0.928695,,,ms_small,0,146,146,146,1,1.024,0.1,False,None,D11,r1,2021-05-04_22h15.59.305,subsecond_timing_v2,2021.1.2,Win32,60.04924038
space,0.72348,space,1.42626,,,ms_small,0,147,147,147,1,0.882,0.2,False,None,D11,r1,2021-05-04_22h15.59.305,subsecond_timing_v2,2021.1.2,Win32,60.04924038
space,0.701315,space,0.545535,,,ms_small,0,148,148,148,1,0.67,0.3,False,None,D11,r1,2021-05-04_22h15.59.305,subsecond_timing_v2,2021.1.2,Win32,60.04924038
space,0.903065,space,0.520605,,,ms_small,0,149,149,149,1,0.67,0.3,False,None,D11,r1,2021-05-04_22h15.59.305,subsecond_timing_v2,2021.1.2,Win32,60.04924038
space,0.993425,space,0.58971,,,ms_small,0,150,150,150,1,0.741,0.3,False,None,D11,r1,2021-05-04_22h15.59.305,subsecond_timing_v2,2021.1.2,Win32,60.04924038
space,1.901095,space,1.01725,,,ms_small,0,151,151,151,1,0.918,0.1,False,None,D11,r1,2021-05-04_22h15.59.305,subsecond_timing_v2,2021.1.2,Win32,60.04924038
space,0.75435,space,0.53416,,,ms_small,0,152,152,152,1,0.706,0.3,False,None,D11,r1,2021-05-04_22h15.59.305,subsecond_timing_v2,2021.1.2,Win32,60.04924038
space,0.741905,space,0.833125,,,ms_small,0,153,153,153,1,0.988,0.2,False,None,D11,r1,2021-05-04_22h15.59.305,subsecond_timing_v2,2021.1.2,Win32,60.04924038
space,0.701225,space,0.801805,,,ms_small,0,154,154,154,1,0.847,0.2,False,None,D11,r1,2021-05-04_22h15.59.305,subsecond_timing_v2,2021.1.2,Win32,60.04924038
space,0.73546,space,1.11135,,,ms_small,0,155,155,155,1,0.776,0.3,False,None,D11,r1,2021-05-04_22h15.59.305,subsecond_timing_v2,2021.1.2,Win32,60.04924038
space,0.744135,space,0.907775,,,ms_small,0,156,156,156,1,0.882,0.2,False,None,D11,r1,2021-05-04_22h15.59.305,subsecond_timing_v2,2021.1.2,Win32,60.04924038
space,0.79253,space,1.151965,,,ms_small,0,157,157,157,1,0.812,0.1,False,None,D11,r1,2021-05-04_22h15.59.305,subsecond_timing_v2,2021.1.2,Win32,60.04924038
space,0.683825,space,1.15534,,,ms_small,0,158,158,158,1,1.024,0.1,False,None,D11,r1,2021-05-04_22h15.59.305,subsecond_timing_v2,2021.1.2,Win32,60.04924038
space,0.6672,space,1.442695,,,ms_small,0,159,159,159,1,0.953,0.2,False,None,D11,r1,2021-05-04_22h15.59.305,subsecond_timing_v2,2021.1.2,Win32,60.04924038
space,0.65041,space,1.38443,,,ms_small,0,160,160,160,1,0.812,0.2,False,None,D11,r1,2021-05-04_22h15.59.305,subsecond_timing_v2,2021.1.2,Win32,60.04924038
space,0.61177,space,0.851565,,,ms_small,0,161,161,161,1,0.67,0.1,False,None,D11,r1,2021-05-04_22h15.59.305,subsecond_timing_v2,2021.1.2,Win32,60.04924038
space,0.587625,space,0.800175,,,ms_small,0,162,162,162,1,0.953,0.1,False,None,D11,r1,2021-05-04_22h15.59.305,subsecond_timing_v2,2021.1.2,Win32,60.04924038
space,0.60964,space,0.8709,,,ms_small,0,163,163,163,1,0.882,0.3,False,None,D11,r1,2021-05-04_22h15.59.305,subsecond_timing_v2,2021.1.2,Win32,60.04924038
space,0.717505,space,1.107055,,,ms_small,0,164,164,164,1,0.988,0.1,False,None,D11,r1,2021-05-04_22h15.59.305,subsecond_timing_v2,2021.1.2,Win32,60.04924038
space,0.68684,space,0.643115,,,ms_small,0,165,165,165,1,0.706,0.1,False,None,D11,r1,2021-05-04_22h15.59.305,subsecond_timing_v2,2021.1.2,Win32,60.04924038
space,0.601425,space,0.754305,,,ms_small,0,166,166,166,1,1.024,0.3,False,None,D11,r1,2021-05-04_22h15.59.305,subsecond_timing_v2,2021.1.2,Win32,60.04924038
space,0.68452,space,0.675205,,,ms_small,0,167,167,167,1,0.847,0.3,False,None,D11,r1,2021-05-04_22h15.59.305,subsecond_timing_v2,2021.1.2,Win32,60.04924038
space,0.703435,space,0.17634,,,ms_small,0,168,168,168,1,0.741,0.3,False,None,D11,r1,2021-05-04_22h15.59.305,subsecond_timing_v2,2021.1.2,Win32,60.04924038
space,0.735525,space,0.651165,,,ms_small,0,169,169,169,1,0.918,0.2,False,None,D11,r1,2021-05-04_22h15.59.305,subsecond_timing_v2,2021.1.2,Win32,60.04924038
space,0.866855,space,0.753945,,,ms_small,0,170,170,170,1,0.776,0.1,False,None,D11,r1,2021-05-04_22h15.59.305,subsecond_timing_v2,2021.1.2,Win32,60.04924038
space,0.844605,space,0.729325,,,ms_small,0,171,171,171,1,0.882,0.3,False,None,D11,r1,2021-05-04_22h15.59.305,subsecond_timing_v2,2021.1.2,Win32,60.04924038
space,0.64374,space,0.93474,,,ms_small,0,172,172,172,1,0.741,0.1,False,None,D11,r1,2021-05-04_22h15.59.305,subsecond_timing_v2,2021.1.2,Win32,60.04924038
space,0.684735,space,0.84488,,,ms_small,0,173,173,173,1,0.988,0.1,False,None,D11,r1,2021-05-04_22h15.59.305,subsecond_timing_v2,2021.1.2,Win32,60.04924038
space,0.711125,space,0.844325,,,ms_small,0,174,174,174,1,0.706,0.2,False,None,D11,r1,2021-05-04_22h15.59.305,subsecond_timing_v2,2021.1.2,Win32,60.04924038
space,0.669005,space,0.88823,,,ms_small,0,175,175,175,1,0.918,0.2,False,None,D11,r1,2021-05-04_22h15.59.305,subsecond_timing_v2,2021.1.2,Win32,60.04924038
space,0.70999,space,1.08525,,,ms_small,0,176,176,176,1,0.953,0.2,False,None,D11,r1,2021-05-04_22h15.59.305,subsecond_timing_v2,2021.1.2,Win32,60.04924038
space,0.62959,space,0.888935,,,ms_small,0,177,177,177,1,0.67,0.2,False,None,D11,r1,2021-05-04_22h15.59.305,subsecond_timing_v2,2021.1.2,Win32,60.04924038
space,0.70133,space,0.835145,,,ms_small,0,178,178,178,1,0.847,0.3,False,None,D11,r1,2021-05-04_22h15.59.305,subsecond_timing_v2,2021.1.2,Win32,60.04924038
space,0.7515,space,0.67722,,,ms_small,0,179,179,179,1,0.776,0.1,False,None,D11,r1,2021-05-04_22h15.59.305,subsecond_timing_v2,2021.1.2,Win32,60.04924038
space,0.60586,space,0.69101,,,ms_small,0,180,180,180,1,0.812,0.1,False,None,D11,r1,2021-05-04_22h15.59.305,subsecond_timing_v2,2021.1.2,Win32,60.04924038
space,0.617215,space,1.172065,,,ms_small,0,181,181,181,1,1.024,0.2,False,None,D11,r1,2021-05-04_22h15.59.305,subsecond_timing_v2,2021.1.2,Win32,60.04924038
space,0.675885,space,0.68396,,,ms_small,0,182,182,182,1,0.706,0.3,False,None,D11,r1,2021-05-04_22h15.59.305,subsecond_timing_v2,2021.1.2,Win32,60.04924038
space,0.77412,space,0.939235,,,ms_small,0,183,183,183,1,0.988,0.1,False,None,D11,r1,2021-05-04_22h15.59.305,subsecond_timing_v2,2021.1.2,Win32,60.04924038
space,0.692035,space,0.90012,,,ms_small,0,184,184,184,1,1.024,0.3,False,None,D11,r1,2021-05-04_22h15.59.305,subsecond_timing_v2,2021.1.2,Win32,60.04924038
space,0.754965,space,0.73465,,,ms_small,0,185,185,185,1,0.847,0.1,False,None,D11,r1,2021-05-04_22h15.59.305,subsecond_timing_v2,2021.1.2,Win32,60.04924038
space,0.642705,space,1.08433,,,ms_small,0,186,186,186,1,0.741,0.1,False,None,D11,r1,2021-05-04_22h15.59.305,subsecond_timing_v2,2021.1.2,Win32,60.04924038
space,0.88506,space,0.773045,,,ms_small,0,187,187,187,1,0.776,0.3,False,None,D11,r1,2021-05-04_22h15.59.305,subsecond_timing_v2,2021.1.2,Win32,60.04924038
space,0.73525,space,0.88396,,,ms_small,0,188,188,188,1,0.812,0.3,False,None,D11,r1,2021-05-04_22h15.59.305,subsecond_timing_v2,2021.1.2,Win32,60.04924038
space,0.7732,space,0.56075,,,ms_small,0,189,189,189,1,0.918,0.3,False,None,D11,r1,2021-05-04_22h15.59.305,subsecond_timing_v2,2021.1.2,Win32,60.04924038
space,1.602055,space,0.89619,,,ms_small,0,190,190,190,1,0.67,0.1,False,None,D11,r1,2021-05-04_22h15.59.305,subsecond_timing_v2,2021.1.2,Win32,60.04924038
space,0.78612,space,0.967835,,,ms_small,0,191,191,191,1,0.882,0.2,False,None,D11,r1,2021-05-04_22h15.59.305,subsecond_timing_v2,2021.1.2,Win32,60.04924038
space,0.667195,space,0.924705,,,ms_small,0,192,192,192,1,0.953,0.1,False,None,D11,r1,2021-05-04_22h15.59.305,subsecond_timing_v2,2021.1.2,Win32,60.04924038
space,0.689085,space,0.77878,,,ms_small,0,193,193,193,1,0.776,0.1,False,None,D11,r1,2021-05-04_22h15.59.305,subsecond_timing_v2,2021.1.2,Win32,60.04924038
space,0.70601,space,1.24789,,,ms_small,0,194,194,194,1,0.988,0.3,False,None,D11,r1,2021-05-04_22h15.59.305,subsecond_timing_v2,2021.1.2,Win32,60.04924038
space,0.550665,space,1.217965,,,ms_small,0,195,195,195,1,0.953,0.1,False,None,D11,r1,2021-05-04_22h15.59.305,subsecond_timing_v2,2021.1.2,Win32,60.04924038
space,0.784965,space,1.2009,,,ms_small,0,196,196,196,1,0.741,0.3,False,None,D11,r1,2021-05-04_22h15.59.305,subsecond_timing_v2,2021.1.2,Win32,60.04924038
space,0.576875,space,1.41807,,,ms_small,0,197,197,197,1,0.67,0.3,False,None,D11,r1,2021-05-04_22h15.59.305,subsecond_timing_v2,2021.1.2,Win32,60.04924038
space,0.772445,space,1.336745,,,ms_small,0,198,198,198,1,0.847,0.3,False,None,D11,r1,2021-05-04_22h15.59.305,subsecond_timing_v2,2021.1.2,Win32,60.04924038
space,0.500555,space,0.88427,,,ms_small,0,199,199,199,1,0.882,0.2,False,None,D11,r1,2021-05-04_22h15.59.305,subsecond_timing_v2,2021.1.2,Win32,60.04924038
space,0.356225,space,0.578605,,,ms_small,0,200,200,200,1,0.706,0.3,False,None,D11,r1,2021-05-04_22h15.59.305,subsecond_timing_v2,2021.1.2,Win32,60.04924038
space,0.51099,space,0.76957,,,ms_small,0,201,201,201,1,0.812,0.1,False,None,D11,r1,2021-05-04_22h15.59.305,subsecond_timing_v2,2021.1.2,Win32,60.04924038
space,0.491205,space,0.756415,,,ms_small,0,202,202,202,1,1.024,0.2,False,None,D11,r1,2021-05-04_22h15.59.305,subsecond_timing_v2,2021.1.2,Win32,60.04924038
space,0.41019,space,0.9525,,,ms_small,0,203,203,203,1,0.918,0.1,False,None,D11,r1,2021-05-04_22h15.59.305,subsecond_timing_v2,2021.1.2,Win32,60.04924038
space,0.650695,space,0.86796,,,ms_small,0,204,204,204,1,0.776,0.2,False,None,D11,r1,2021-05-04_22h15.59.305,subsecond_timing_v2,2021.1.2,Win32,60.04924038
space,0.600885,space,0.53971,,,ms_small,0,205,205,205,1,0.67,0.1,False,None,D11,r1,2021-05-04_22h15.59.305,subsecond_timing_v2,2021.1.2,Win32,60.04924038
space,0.705645,space,0.64148,,,ms_small,0,206,206,206,1,0.706,0.3,False,None,D11,r1,2021-05-04_22h15.59.305,subsecond_timing_v2,2021.1.2,Win32,60.04924038
space,0.55267,space,1.03351,,,ms_small,0,207,207,207,1,0.988,0.2,False,None,D11,r1,2021-05-04_22h15.59.305,subsecond_timing_v2,2021.1.2,Win32,60.04924038
space,0.567405,space,0.867655,,,ms_small,0,208,208,208,1,0.847,0.3,False,None,D11,r1,2021-05-04_22h15.59.305,subsecond_timing_v2,2021.1.2,Win32,60.04924038
space,0.568485,space,0.928635,,,ms_small,0,209,209,209,1,0.953,0.2,False,None,D11,r1,2021-05-04_22h15.59.305,subsecond_timing_v2,2021.1.2,Win32,60.04924038
space,0.53982,space,0.735625,,,ms_small,0,210,210,210,1,0.812,0.1,False,None,D11,r1,2021-05-04_22h15.59.305,subsecond_timing_v2,2021.1.2,Win32,60.04924038
space,0.526415,space,1.09186,,,ms_small,0,211,211,211,1,0.918,0.1,False,None,D11,r1,2021-05-04_22h15.59.305,subsecond_timing_v2,2021.1.2,Win32,60.04924038
space,0.603155,space,0.579195,,,ms_small,0,212,212,212,1,0.741,0.3,False,None,D11,r1,2021-05-04_22h15.59.305,subsecond_timing_v2,2021.1.2,Win32,60.04924038
space,0.65124,space,0.75111,,,ms_small,0,213,213,213,1,0.882,0.3,False,None,D11,r1,2021-05-04_22h15.59.305,subsecond_timing_v2,2021.1.2,Win32,60.04924038
space,0.740665,space,0.94999,,,ms_small,0,214,214,214,1,1.024,0.1,False,None,D11,r1,2021-05-04_22h15.59.305,subsecond_timing_v2,2021.1.2,Win32,60.04924038
space,0.95096,space,1.042985,,,ms_small,0,215,215,215,1,1.024,0.2,False,None,D11,r1,2021-05-04_22h15.59.305,subsecond_timing_v2,2021.1.2,Win32,60.04924038
space,0.702905,space,0.653935,,,ms_small,0,216,216,216,1,0.706,0.2,False,None,D11,r1,2021-05-04_22h15.59.305,subsecond_timing_v2,2021.1.2,Win32,60.04924038
space,0.824625,space,0.820705,,,ms_small,0,217,217,217,1,0.882,0.1,False,None,D11,r1,2021-05-04_22h15.59.305,subsecond_timing_v2,2021.1.2,Win32,60.04924038
space,0.78787,space,0.66705,,,ms_small,0,218,218,218,1,0.776,0.2,False,None,D11,r1,2021-05-04_22h15.59.305,subsecond_timing_v2,2021.1.2,Win32,60.04924038
space,0.762635,space,0.87706,,,ms_small,0,219,219,219,1,0.847,0.2,False,None,D11,r1,2021-05-04_22h15.59.305,subsecond_timing_v2,2021.1.2,Win32,60.04924038
space,0.906855,space,0.86718,,,ms_small,0,220,220,220,1,0.812,0.1,False,None,D11,r1,2021-05-04_22h15.59.305,subsecond_timing_v2,2021.1.2,Win32,60.04924038
space,0.7335,space,0.751005,,,ms_small,0,221,221,221,1,0.988,0.1,False,None,D11,r1,2021-05-04_22h15.59.305,subsecond_timing_v2,2021.1.2,Win32,60.04924038
space,0.927625,space,0.889895,,,ms_small,0,222,222,222,1,0.918,0.1,False,None,D11,r1,2021-05-04_22h15.59.305,subsecond_timing_v2,2021.1.2,Win32,60.04924038
space,0.71814,space,0.467605,,,ms_small,0,223,223,223,1,0.67,0.2,False,None,D11,r1,2021-05-04_22h15.59.305,subsecond_timing_v2,2021.1.2,Win32,60.04924038
space,0.701075,space,0.613975,,,ms_small,0,224,224,224,1,0.741,0.3,False,None,D11,r1,2021-05-04_22h15.59.305,subsecond_timing_v2,2021.1.2,Win32,60.04924038
space,0.66705,space,0.86858,,,ms_small,0,225,225,225,1,0.953,0.1,False,None,D11,r1,2021-05-04_22h15.59.305,subsecond_timing_v2,2021.1.2,Win32,60.04924038
