key_resp_start.keys,key_resp_start.rt,key_resp_stop.keys,key_resp_stop.rt,feedback_range,hit,stimulus_range,trials.thisRepN,trials.thisTrialN,trials.thisN,trials.thisIndex,trials.ran,stimulus_duration,onset,feedback,feedback_range_fromfile,participant,session,date,expName,psychopyVersion,OS,frameRate
space,1.163235,space,1.01812,0.3,TRUE,Training,0,0,0,0,1,1,0.2,True,0.3,Z01,r2,2021-04-23_18h13.31.833,subsecond_timing_v2,2021.1.2,Win32,60.06366749
space,0.87707,space,0.78078,0.3,TRUE,Training,0,1,1,1,1,0.75,0.2,True,0.3,Z01,r2,2021-04-23_18h13.31.833,subsecond_timing_v2,2021.1.2,Win32,60.06366749
space,0.724975,space,0.61474,0.3,TRUE,Training,0,2,2,2,1,0.5,0.2,True,0.3,Z01,r2,2021-04-23_18h13.31.833,subsecond_timing_v2,2021.1.2,Win32,60.06366749
space,0.75429,space,0.63762,0.3,TRUE,Training,0,3,3,3,1,0.5,0.3,True,0.3,Z01,r2,2021-04-23_18h13.31.833,subsecond_timing_v2,2021.1.2,Win32,60.06366749
space,0.696905,space,0.689205,0.3,TRUE,Training,0,4,4,4,1,0.75,0.3,True,0.3,Z01,r2,2021-04-23_18h13.31.833,subsecond_timing_v2,2021.1.2,Win32,60.06366749
space,0.91727,space,0.85385,0.3,TRUE,Training,0,5,5,5,1,1,0.3,True,0.3,Z01,r2,2021-04-23_18h13.31.833,subsecond_timing_v2,2021.1.2,Win32,60.06366749
space,1.162175,space,1.144995,,,ms_large,0,6,6,6,1,1.165,0.2,False,None,Z01,r2,2021-04-23_18h13.31.833,subsecond_timing_v2,2021.1.2,Win32,60.06366749
space,0.889375,space,0.80405,,,ms_large,0,7,7,7,1,1.094,0.3,False,None,Z01,r2,2021-04-23_18h13.31.833,subsecond_timing_v2,2021.1.2,Win32,60.06366749
space,0.989345,space,0.86051,,,ms_large,0,8,8,8,1,1.2,0.3,False,None,Z01,r2,2021-04-23_18h13.31.833,subsecond_timing_v2,2021.1.2,Win32,60.06366749
space,0.90269,space,0.99074,,,ms_large,0,9,9,9,1,1.024,0.1,False,None,Z01,r2,2021-04-23_18h13.31.833,subsecond_timing_v2,2021.1.2,Win32,60.06366749
space,0.983995,space,0.90096,,,ms_large,0,10,10,10,1,0.953,0.3,False,None,Z01,r2,2021-04-23_18h13.31.833,subsecond_timing_v2,2021.1.2,Win32,60.06366749
space,0.934025,space,0.88476,,,ms_large,0,11,11,11,1,0.847,0.1,False,None,Z01,r2,2021-04-23_18h13.31.833,subsecond_timing_v2,2021.1.2,Win32,60.06366749
space,1.034095,space,0.818055,,,ms_large,0,12,12,12,1,0.882,0.3,False,None,Z01,r2,2021-04-23_18h13.31.833,subsecond_timing_v2,2021.1.2,Win32,60.06366749
space,0.883985,space,0.91745,,,ms_large,0,13,13,13,1,1.129,0.1,False,None,Z01,r2,2021-04-23_18h13.31.833,subsecond_timing_v2,2021.1.2,Win32,60.06366749
space,0.934055,space,0.984025,,,ms_large,0,14,14,14,1,1.059,0.3,False,None,Z01,r2,2021-04-23_18h13.31.833,subsecond_timing_v2,2021.1.2,Win32,60.06366749
space,0.867485,space,0.90066,,,ms_large,0,15,15,15,1,0.918,0.3,False,None,Z01,r2,2021-04-23_18h13.31.833,subsecond_timing_v2,2021.1.2,Win32,60.06366749
space,0.900815,space,0.967445,,,ms_large,0,16,16,16,1,0.988,0.1,False,None,Z01,r2,2021-04-23_18h13.31.833,subsecond_timing_v2,2021.1.2,Win32,60.06366749
space,0.867465,space,0.800725,,,ms_large,0,17,17,17,1,0.953,0.2,False,None,Z01,r2,2021-04-23_18h13.31.833,subsecond_timing_v2,2021.1.2,Win32,60.06366749
space,0.86766,space,0.86755,,,ms_large,0,18,18,18,1,1.129,0.3,False,None,Z01,r2,2021-04-23_18h13.31.833,subsecond_timing_v2,2021.1.2,Win32,60.06366749
space,0.96749,space,0.950975,,,ms_large,0,19,19,19,1,0.988,0.2,False,None,Z01,r2,2021-04-23_18h13.31.833,subsecond_timing_v2,2021.1.2,Win32,60.06366749
space,0.96771,space,0.817805,,,ms_large,0,20,20,20,1,1.024,0.1,False,None,Z01,r2,2021-04-23_18h13.31.833,subsecond_timing_v2,2021.1.2,Win32,60.06366749
space,1.10051,space,1.050785,,,ms_large,0,21,21,21,1,1.165,0.1,False,None,Z01,r2,2021-04-23_18h13.31.833,subsecond_timing_v2,2021.1.2,Win32,60.06366749
space,1.101175,space,1.016975,,,ms_large,0,22,22,22,1,1.2,0.1,False,None,Z01,r2,2021-04-23_18h13.31.833,subsecond_timing_v2,2021.1.2,Win32,60.06366749
space,0.9844,space,0.967545,,,ms_large,0,23,23,23,1,0.882,0.2,False,None,Z01,r2,2021-04-23_18h13.31.833,subsecond_timing_v2,2021.1.2,Win32,60.06366749
space,1.067975,space,0.95143,,,ms_large,0,24,24,24,1,0.847,0.3,False,None,Z01,r2,2021-04-23_18h13.31.833,subsecond_timing_v2,2021.1.2,Win32,60.06366749
space,0.916835,space,0.867445,,,ms_large,0,25,25,25,1,1.094,0.1,False,None,Z01,r2,2021-04-23_18h13.31.833,subsecond_timing_v2,2021.1.2,Win32,60.06366749
space,0.91726,space,0.96747,,,ms_large,0,26,26,26,1,1.059,0.1,False,None,Z01,r2,2021-04-23_18h13.31.833,subsecond_timing_v2,2021.1.2,Win32,60.06366749
space,0.984225,space,0.851075,,,ms_large,0,27,27,27,1,0.918,0.3,False,None,Z01,r2,2021-04-23_18h13.31.833,subsecond_timing_v2,2021.1.2,Win32,60.06366749
space,1.03624,space,0.857785,,,ms_large,0,28,28,28,1,0.988,0.2,False,None,Z01,r2,2021-04-23_18h13.31.833,subsecond_timing_v2,2021.1.2,Win32,60.06366749
space,1.022475,space,0.93444,,,ms_large,0,29,29,29,1,1.165,0.2,False,None,Z01,r2,2021-04-23_18h13.31.833,subsecond_timing_v2,2021.1.2,Win32,60.06366749
space,0.89758,space,0.797345,,,ms_large,0,30,30,30,1,1.129,0.1,False,None,Z01,r2,2021-04-23_18h13.31.833,subsecond_timing_v2,2021.1.2,Win32,60.06366749
space,0.88965,space,0.89763,,,ms_large,0,31,31,31,1,1.059,0.1,False,None,Z01,r2,2021-04-23_18h13.31.833,subsecond_timing_v2,2021.1.2,Win32,60.06366749
space,0.95463,space,0.817335,,,ms_large,0,32,32,32,1,0.918,0.3,False,None,Z01,r2,2021-04-23_18h13.31.833,subsecond_timing_v2,2021.1.2,Win32,60.06366749
space,0.860685,space,0.93149,,,ms_large,0,33,33,33,1,1.2,0.3,False,None,Z01,r2,2021-04-23_18h13.31.833,subsecond_timing_v2,2021.1.2,Win32,60.06366749
space,1.018925,space,0.90902,,,ms_large,0,34,34,34,1,0.847,0.1,False,None,Z01,r2,2021-04-23_18h13.31.833,subsecond_timing_v2,2021.1.2,Win32,60.06366749
space,0.989155,space,0.846535,,,ms_large,0,35,35,35,1,1.024,0.1,False,None,Z01,r2,2021-04-23_18h13.31.833,subsecond_timing_v2,2021.1.2,Win32,60.06366749
space,1.017585,space,0.774575,,,ms_large,0,36,36,36,1,0.882,0.1,False,None,Z01,r2,2021-04-23_18h13.31.833,subsecond_timing_v2,2021.1.2,Win32,60.06366749
space,0.835365,space,0.867325,,,ms_large,0,37,37,37,1,1.094,0.2,False,None,Z01,r2,2021-04-23_18h13.31.833,subsecond_timing_v2,2021.1.2,Win32,60.06366749
space,1.029175,space,0.890535,,,ms_large,0,38,38,38,1,0.953,0.1,False,None,Z01,r2,2021-04-23_18h13.31.833,subsecond_timing_v2,2021.1.2,Win32,60.06366749
space,0.853975,space,0.91345,,,ms_large,0,39,39,39,1,1.165,0.2,False,None,Z01,r2,2021-04-23_18h13.31.833,subsecond_timing_v2,2021.1.2,Win32,60.06366749
space,0.92883,space,0.8195,,,ms_large,0,40,40,40,1,0.953,0.1,False,None,Z01,r2,2021-04-23_18h13.31.833,subsecond_timing_v2,2021.1.2,Win32,60.06366749
space,0.777485,space,0.77379,,,ms_large,0,41,41,41,1,0.988,0.1,False,None,Z01,r2,2021-04-23_18h13.31.833,subsecond_timing_v2,2021.1.2,Win32,60.06366749
space,0.70412,space,0.791775,,,ms_large,0,42,42,42,1,1.094,0.1,False,None,Z01,r2,2021-04-23_18h13.31.833,subsecond_timing_v2,2021.1.2,Win32,60.06366749
space,0.82383,space,0.75112,,,ms_large,0,43,43,43,1,1.129,0.3,False,None,Z01,r2,2021-04-23_18h13.31.833,subsecond_timing_v2,2021.1.2,Win32,60.06366749
space,1.150325,space,0.934245,,,ms_large,0,44,44,44,1,0.882,0.2,False,None,Z01,r2,2021-04-23_18h13.31.833,subsecond_timing_v2,2021.1.2,Win32,60.06366749
space,0.884155,space,0.90121,,,ms_large,0,45,45,45,1,1.2,0.1,False,None,Z01,r2,2021-04-23_18h13.31.833,subsecond_timing_v2,2021.1.2,Win32,60.06366749
space,0.93427,space,0.834175,,,ms_large,0,46,46,46,1,1.024,0.1,False,None,Z01,r2,2021-04-23_18h13.31.833,subsecond_timing_v2,2021.1.2,Win32,60.06366749
space,0.96753,space,0.76744,,,ms_large,0,47,47,47,1,0.918,0.2,False,None,Z01,r2,2021-04-23_18h13.31.833,subsecond_timing_v2,2021.1.2,Win32,60.06366749
space,1.03445,space,0.86757,,,ms_large,0,48,48,48,1,0.847,0.1,False,None,Z01,r2,2021-04-23_18h13.31.833,subsecond_timing_v2,2021.1.2,Win32,60.06366749
space,1.067705,space,0.90146,,,ms_large,0,49,49,49,1,1.059,0.3,False,None,Z01,r2,2021-04-23_18h13.31.833,subsecond_timing_v2,2021.1.2,Win32,60.06366749
space,1.13433,space,0.86736,,,ms_large,0,50,50,50,1,0.953,0.2,False,None,Z01,r2,2021-04-23_18h13.31.833,subsecond_timing_v2,2021.1.2,Win32,60.06366749
space,0.8342,space,0.83423,,,ms_large,0,51,51,51,1,1.024,0.3,False,None,Z01,r2,2021-04-23_18h13.31.833,subsecond_timing_v2,2021.1.2,Win32,60.06366749
space,0.984055,space,1.017325,,,ms_large,0,52,52,52,1,1.165,0.3,False,None,Z01,r2,2021-04-23_18h13.31.833,subsecond_timing_v2,2021.1.2,Win32,60.06366749
space,0.984065,space,0.86755,,,ms_large,0,53,53,53,1,0.847,0.3,False,None,Z01,r2,2021-04-23_18h13.31.833,subsecond_timing_v2,2021.1.2,Win32,60.06366749
space,0.984945,space,0.78407,,,ms_large,0,54,54,54,1,1.2,0.1,False,None,Z01,r2,2021-04-23_18h13.31.833,subsecond_timing_v2,2021.1.2,Win32,60.06366749
space,0.850785,space,0.81745,,,ms_large,0,55,55,55,1,0.988,0.3,False,None,Z01,r2,2021-04-23_18h13.31.833,subsecond_timing_v2,2021.1.2,Win32,60.06366749
space,1.11726,space,0.80066,,,ms_large,0,56,56,56,1,0.882,0.1,False,None,Z01,r2,2021-04-23_18h13.31.833,subsecond_timing_v2,2021.1.2,Win32,60.06366749
space,0.900845,space,0.834515,,,ms_large,0,57,57,57,1,1.059,0.1,False,None,Z01,r2,2021-04-23_18h13.31.833,subsecond_timing_v2,2021.1.2,Win32,60.06366749
space,0.866485,space,0.83425,,,ms_large,0,58,58,58,1,1.094,0.1,False,None,Z01,r2,2021-04-23_18h13.31.833,subsecond_timing_v2,2021.1.2,Win32,60.06366749
space,0.918045,space,0.934165,,,ms_large,0,59,59,59,1,1.129,0.3,False,None,Z01,r2,2021-04-23_18h13.31.833,subsecond_timing_v2,2021.1.2,Win32,60.06366749
space,1.01764,space,0.85079,,,ms_large,0,60,60,60,1,0.918,0.3,False,None,Z01,r2,2021-04-23_18h13.31.833,subsecond_timing_v2,2021.1.2,Win32,60.06366749
space,1.08461,space,0.851775,,,ms_large,0,61,61,61,1,1.129,0.1,False,None,Z01,r2,2021-04-23_18h13.31.833,subsecond_timing_v2,2021.1.2,Win32,60.06366749
space,0.884795,space,0.851015,,,ms_large,0,62,62,62,1,1.165,0.3,False,None,Z01,r2,2021-04-23_18h13.31.833,subsecond_timing_v2,2021.1.2,Win32,60.06366749
space,1.00938,space,0.804955,,,ms_large,0,63,63,63,1,0.953,0.2,False,None,Z01,r2,2021-04-23_18h13.31.833,subsecond_timing_v2,2021.1.2,Win32,60.06366749
space,0.918155,space,0.811485,,,ms_large,0,64,64,64,1,1.094,0.2,False,None,Z01,r2,2021-04-23_18h13.31.833,subsecond_timing_v2,2021.1.2,Win32,60.06366749
space,0.95708,space,0.823555,,,ms_large,0,65,65,65,1,0.882,0.1,False,None,Z01,r2,2021-04-23_18h13.31.833,subsecond_timing_v2,2021.1.2,Win32,60.06366749
space,0.88211,space,0.834125,,,ms_large,0,66,66,66,1,0.918,0.2,False,None,Z01,r2,2021-04-23_18h13.31.833,subsecond_timing_v2,2021.1.2,Win32,60.06366749
space,0.895525,space,0.86361,,,ms_large,0,67,67,67,1,0.988,0.1,False,None,Z01,r2,2021-04-23_18h13.31.833,subsecond_timing_v2,2021.1.2,Win32,60.06366749
space,0.970635,space,0.78593,,,ms_large,0,68,68,68,1,1.024,0.1,False,None,Z01,r2,2021-04-23_18h13.31.833,subsecond_timing_v2,2021.1.2,Win32,60.06366749
space,0.935025,space,0.826175,,,ms_large,0,69,69,69,1,1.2,0.1,False,None,Z01,r2,2021-04-23_18h13.31.833,subsecond_timing_v2,2021.1.2,Win32,60.06366749
space,0.992995,space,0.80297,,,ms_large,0,70,70,70,1,1.059,0.1,False,None,Z01,r2,2021-04-23_18h13.31.833,subsecond_timing_v2,2021.1.2,Win32,60.06366749
space,1.041745,space,0.93379,,,ms_large,0,71,71,71,1,0.847,0.1,False,None,Z01,r2,2021-04-23_18h13.31.833,subsecond_timing_v2,2021.1.2,Win32,60.06366749
space,0.917155,space,0.917305,,,ms_large,0,72,72,72,1,1.094,0.2,False,None,Z01,r2,2021-04-23_18h13.31.833,subsecond_timing_v2,2021.1.2,Win32,60.06366749
space,1.011655,space,0.977925,,,ms_large,0,73,73,73,1,0.918,0.3,False,None,Z01,r2,2021-04-23_18h13.31.833,subsecond_timing_v2,2021.1.2,Win32,60.06366749
space,0.90618,space,0.825365,,,ms_large,0,74,74,74,1,0.953,0.2,False,None,Z01,r2,2021-04-23_18h13.31.833,subsecond_timing_v2,2021.1.2,Win32,60.06366749
space,0.833835,space,0.8364,,,ms_large,0,75,75,75,1,0.882,0.2,False,None,Z01,r2,2021-04-23_18h13.31.833,subsecond_timing_v2,2021.1.2,Win32,60.06366749
space,1.08376,space,0.796545,,,ms_large,0,76,76,76,1,0.988,0.3,False,None,Z01,r2,2021-04-23_18h13.31.833,subsecond_timing_v2,2021.1.2,Win32,60.06366749
space,0.940255,space,0.80033,,,ms_large,0,77,77,77,1,1.2,0.1,False,None,Z01,r2,2021-04-23_18h13.31.833,subsecond_timing_v2,2021.1.2,Win32,60.06366749
space,1.000705,space,0.925055,,,ms_large,0,78,78,78,1,1.024,0.2,False,None,Z01,r2,2021-04-23_18h13.31.833,subsecond_timing_v2,2021.1.2,Win32,60.06366749
space,0.960105,space,0.90342,,,ms_large,0,79,79,79,1,1.129,0.1,False,None,Z01,r2,2021-04-23_18h13.31.833,subsecond_timing_v2,2021.1.2,Win32,60.06366749
space,0.919525,space,0.84725,,,ms_large,0,80,80,80,1,1.165,0.3,False,None,Z01,r2,2021-04-23_18h13.31.833,subsecond_timing_v2,2021.1.2,Win32,60.06366749
space,1.02722,space,0.878255,,,ms_large,0,81,81,81,1,1.059,0.2,False,None,Z01,r2,2021-04-23_18h13.31.833,subsecond_timing_v2,2021.1.2,Win32,60.06366749
space,1.12526,space,0.990975,,,ms_large,0,82,82,82,1,0.847,0.1,False,None,Z01,r2,2021-04-23_18h13.31.833,subsecond_timing_v2,2021.1.2,Win32,60.06366749
space,0.92312,space,0.878905,,,ms_large,0,83,83,83,1,1.024,0.1,False,None,Z01,r2,2021-04-23_18h13.31.833,subsecond_timing_v2,2021.1.2,Win32,60.06366749
space,1.001715,space,0.895765,,,ms_large,0,84,84,84,1,1.059,0.3,False,None,Z01,r2,2021-04-23_18h13.31.833,subsecond_timing_v2,2021.1.2,Win32,60.06366749
space,1.045315,space,0.91663,,,ms_large,0,85,85,85,1,0.918,0.1,False,None,Z01,r2,2021-04-23_18h13.31.833,subsecond_timing_v2,2021.1.2,Win32,60.06366749
space,0.80042,space,0.831575,,,ms_large,0,86,86,86,1,1.165,0.1,False,None,Z01,r2,2021-04-23_18h13.31.833,subsecond_timing_v2,2021.1.2,Win32,60.06366749
space,0.75896,space,0.79311,,,ms_large,0,87,87,87,1,0.953,0.1,False,None,Z01,r2,2021-04-23_18h13.31.833,subsecond_timing_v2,2021.1.2,Win32,60.06366749
space,0.8391,space,0.76792,,,ms_large,0,88,88,88,1,0.882,0.1,False,None,Z01,r2,2021-04-23_18h13.31.833,subsecond_timing_v2,2021.1.2,Win32,60.06366749
space,0.94749,space,0.812045,,,ms_large,0,89,89,89,1,0.847,0.1,False,None,Z01,r2,2021-04-23_18h13.31.833,subsecond_timing_v2,2021.1.2,Win32,60.06366749
space,0.68774,space,0.87822,,,ms_large,0,90,90,90,1,1.094,0.1,False,None,Z01,r2,2021-04-23_18h13.31.833,subsecond_timing_v2,2021.1.2,Win32,60.06366749
space,0.647655,space,0.83418,,,ms_large,0,91,91,91,1,1.129,0.2,False,None,Z01,r2,2021-04-23_18h13.31.833,subsecond_timing_v2,2021.1.2,Win32,60.06366749
space,0.81797,space,0.912705,,,ms_large,0,92,92,92,1,1.2,0.1,False,None,Z01,r2,2021-04-23_18h13.31.833,subsecond_timing_v2,2021.1.2,Win32,60.06366749
space,0.88756,space,0.9028,,,ms_large,0,93,93,93,1,0.988,0.1,False,None,Z01,r2,2021-04-23_18h13.31.833,subsecond_timing_v2,2021.1.2,Win32,60.06366749
space,0.75413,space,0.9083,,,ms_large,0,94,94,94,1,1.129,0.3,False,None,Z01,r2,2021-04-23_18h13.31.833,subsecond_timing_v2,2021.1.2,Win32,60.06366749
space,0.784925,space,0.922,,,ms_large,0,95,95,95,1,1.165,0.2,False,None,Z01,r2,2021-04-23_18h13.31.833,subsecond_timing_v2,2021.1.2,Win32,60.06366749
space,0.967235,space,0.934305,,,ms_large,0,96,96,96,1,1.024,0.3,False,None,Z01,r2,2021-04-23_18h13.31.833,subsecond_timing_v2,2021.1.2,Win32,60.06366749
space,0.901415,space,0.851215,,,ms_large,0,97,97,97,1,1.094,0.1,False,None,Z01,r2,2021-04-23_18h13.31.833,subsecond_timing_v2,2021.1.2,Win32,60.06366749
space,1.017475,space,0.884005,,,ms_large,0,98,98,98,1,1.059,0.2,False,None,Z01,r2,2021-04-23_18h13.31.833,subsecond_timing_v2,2021.1.2,Win32,60.06366749
space,0.85092,space,0.950905,,,ms_large,0,99,99,99,1,1.2,0.1,False,None,Z01,r2,2021-04-23_18h13.31.833,subsecond_timing_v2,2021.1.2,Win32,60.06366749
space,0.90066,space,0.81748,,,ms_large,0,100,100,100,1,0.882,0.3,False,None,Z01,r2,2021-04-23_18h13.31.833,subsecond_timing_v2,2021.1.2,Win32,60.06366749
space,1.084405,space,0.667415,,,ms_large,0,101,101,101,1,0.918,0.3,False,None,Z01,r2,2021-04-23_18h13.31.833,subsecond_timing_v2,2021.1.2,Win32,60.06366749
space,0.751035,space,0.76798,,,ms_large,0,102,102,102,1,0.988,0.3,False,None,Z01,r2,2021-04-23_18h13.31.833,subsecond_timing_v2,2021.1.2,Win32,60.06366749
space,0.90094,space,0.834795,,,ms_large,0,103,103,103,1,0.847,0.1,False,None,Z01,r2,2021-04-23_18h13.31.833,subsecond_timing_v2,2021.1.2,Win32,60.06366749
space,0.78454,space,0.76763,,,ms_large,0,104,104,104,1,0.953,0.3,False,None,Z01,r2,2021-04-23_18h13.31.833,subsecond_timing_v2,2021.1.2,Win32,60.06366749
space,0.80049,space,0.734155,,,ms_large,0,105,105,105,1,0.847,0.3,False,None,Z01,r2,2021-04-23_18h13.31.833,subsecond_timing_v2,2021.1.2,Win32,60.06366749
space,0.81734,space,0.734255,,,ms_large,0,106,106,106,1,1.094,0.3,False,None,Z01,r2,2021-04-23_18h13.31.833,subsecond_timing_v2,2021.1.2,Win32,60.06366749
space,0.85057,space,0.800915,,,ms_large,0,107,107,107,1,1.129,0.3,False,None,Z01,r2,2021-04-23_18h13.31.833,subsecond_timing_v2,2021.1.2,Win32,60.06366749
space,0.91753,space,0.76777,,,ms_large,0,108,108,108,1,0.882,0.3,False,None,Z01,r2,2021-04-23_18h13.31.833,subsecond_timing_v2,2021.1.2,Win32,60.06366749
space,0.800735,space,0.784235,,,ms_large,0,109,109,109,1,0.953,0.2,False,None,Z01,r2,2021-04-23_18h13.31.833,subsecond_timing_v2,2021.1.2,Win32,60.06366749
space,0.81742,space,0.817455,,,ms_large,0,110,110,110,1,0.988,0.1,False,None,Z01,r2,2021-04-23_18h13.31.833,subsecond_timing_v2,2021.1.2,Win32,60.06366749
space,0.884815,space,0.85091,,,ms_large,0,111,111,111,1,1.165,0.3,False,None,Z01,r2,2021-04-23_18h13.31.833,subsecond_timing_v2,2021.1.2,Win32,60.06366749
space,1.100665,space,0.91778,,,ms_large,0,112,112,112,1,0.918,0.2,False,None,Z01,r2,2021-04-23_18h13.31.833,subsecond_timing_v2,2021.1.2,Win32,60.06366749
space,0.98395,space,1.01181,,,ms_large,0,113,113,113,1,1.059,0.3,False,None,Z01,r2,2021-04-23_18h13.31.833,subsecond_timing_v2,2021.1.2,Win32,60.06366749
space,0.96881,space,1.009545,,,ms_large,0,114,114,114,1,1.2,0.2,False,None,Z01,r2,2021-04-23_18h13.31.833,subsecond_timing_v2,2021.1.2,Win32,60.06366749
space,1.034795,space,1.000965,,,ms_large,0,115,115,115,1,1.024,0.3,False,None,Z01,r2,2021-04-23_18h13.31.833,subsecond_timing_v2,2021.1.2,Win32,60.06366749
space,1.071345,space,1.01043,,,ms_large,0,116,116,116,1,1.129,0.3,False,None,Z01,r2,2021-04-23_18h13.31.833,subsecond_timing_v2,2021.1.2,Win32,60.06366749
space,0.957715,space,1.02426,,,ms_large,0,117,117,117,1,1.2,0.3,False,None,Z01,r2,2021-04-23_18h13.31.833,subsecond_timing_v2,2021.1.2,Win32,60.06366749
space,1.06764,space,1.070105,,,ms_large,0,118,118,118,1,1.024,0.3,False,None,Z01,r2,2021-04-23_18h13.31.833,subsecond_timing_v2,2021.1.2,Win32,60.06366749
space,0.984185,space,1.009135,,,ms_large,0,119,119,119,1,1.094,0.1,False,None,Z01,r2,2021-04-23_18h13.31.833,subsecond_timing_v2,2021.1.2,Win32,60.06366749
space,1.0694,space,1.04306,,,ms_large,0,120,120,120,1,1.059,0.1,False,None,Z01,r2,2021-04-23_18h13.31.833,subsecond_timing_v2,2021.1.2,Win32,60.06366749
space,1.022345,space,0.904415,,,ms_large,0,121,121,121,1,0.988,0.2,False,None,Z01,r2,2021-04-23_18h13.31.833,subsecond_timing_v2,2021.1.2,Win32,60.06366749
space,0.94584,space,0.929415,,,ms_large,0,122,122,122,1,0.847,0.3,False,None,Z01,r2,2021-04-23_18h13.31.833,subsecond_timing_v2,2021.1.2,Win32,60.06366749
space,1.033915,space,0.92034,,,ms_large,0,123,123,123,1,0.953,0.2,False,None,Z01,r2,2021-04-23_18h13.31.833,subsecond_timing_v2,2021.1.2,Win32,60.06366749
space,1.08369,space,0.818045,,,ms_large,0,124,124,124,1,0.918,0.2,False,None,Z01,r2,2021-04-23_18h13.31.833,subsecond_timing_v2,2021.1.2,Win32,60.06366749
space,1.067335,space,1.006855,,,ms_large,0,125,125,125,1,1.165,0.2,False,None,Z01,r2,2021-04-23_18h13.31.833,subsecond_timing_v2,2021.1.2,Win32,60.06366749
space,1.018115,space,0.93405,,,ms_large,0,126,126,126,1,0.882,0.3,False,None,Z01,r2,2021-04-23_18h13.31.833,subsecond_timing_v2,2021.1.2,Win32,60.06366749
space,0.89769,space,0.960105,,,ms_large,0,127,127,127,1,0.882,0.2,False,None,Z01,r2,2021-04-23_18h13.31.833,subsecond_timing_v2,2021.1.2,Win32,60.06366749
space,1.384725,space,1.162605,,,ms_large,0,128,128,128,1,1.094,0.2,False,None,Z01,r2,2021-04-23_18h13.31.833,subsecond_timing_v2,2021.1.2,Win32,60.06366749
space,1.620015,space,1.420775,,,ms_large,0,129,129,129,1,1.024,0.3,False,None,Z01,r2,2021-04-23_18h13.31.833,subsecond_timing_v2,2021.1.2,Win32,60.06366749
space,0.991955,space,1.017965,,,ms_large,0,130,130,130,1,0.847,0.1,False,None,Z01,r2,2021-04-23_18h13.31.833,subsecond_timing_v2,2021.1.2,Win32,60.06366749
space,1.010395,space,1.219495,,,ms_large,0,131,131,131,1,1.2,0.1,False,None,Z01,r2,2021-04-23_18h13.31.833,subsecond_timing_v2,2021.1.2,Win32,60.06366749
space,1.019015,space,0.98544,,,ms_large,0,132,132,132,1,1.059,0.3,False,None,Z01,r2,2021-04-23_18h13.31.833,subsecond_timing_v2,2021.1.2,Win32,60.06366749
space,1.000995,space,1.11705,,,ms_large,0,133,133,133,1,0.918,0.1,False,None,Z01,r2,2021-04-23_18h13.31.833,subsecond_timing_v2,2021.1.2,Win32,60.06366749
space,1.02596,space,1.15103,,,ms_large,0,134,134,134,1,1.129,0.3,False,None,Z01,r2,2021-04-23_18h13.31.833,subsecond_timing_v2,2021.1.2,Win32,60.06366749
space,1.083855,space,1.101675,,,ms_large,0,135,135,135,1,1.165,0.2,False,None,Z01,r2,2021-04-23_18h13.31.833,subsecond_timing_v2,2021.1.2,Win32,60.06366749
space,0.889265,space,1.05093,,,ms_large,0,136,136,136,1,0.953,0.1,False,None,Z01,r2,2021-04-23_18h13.31.833,subsecond_timing_v2,2021.1.2,Win32,60.06366749
space,1.11019,space,1.00447,,,ms_large,0,137,137,137,1,0.988,0.3,False,None,Z01,r2,2021-04-23_18h13.31.833,subsecond_timing_v2,2021.1.2,Win32,60.06366749
space,1.07234,space,1.053735,,,ms_large,0,138,138,138,1,0.847,0.1,False,None,Z01,r2,2021-04-23_18h13.31.833,subsecond_timing_v2,2021.1.2,Win32,60.06366749
space,0.93564,space,0.90302,,,ms_large,0,139,139,139,1,0.882,0.1,False,None,Z01,r2,2021-04-23_18h13.31.833,subsecond_timing_v2,2021.1.2,Win32,60.06366749
space,0.82003,space,1.016705,,,ms_large,0,140,140,140,1,0.988,0.3,False,None,Z01,r2,2021-04-23_18h13.31.833,subsecond_timing_v2,2021.1.2,Win32,60.06366749
space,0.895575,space,1.06943,,,ms_large,0,141,141,141,1,0.953,0.1,False,None,Z01,r2,2021-04-23_18h13.31.833,subsecond_timing_v2,2021.1.2,Win32,60.06366749
space,0.75097,space,1.100725,,,ms_large,0,142,142,142,1,1.165,0.2,False,None,Z01,r2,2021-04-23_18h13.31.833,subsecond_timing_v2,2021.1.2,Win32,60.06366749
space,0.93318,space,0.9132,,,ms_large,0,143,143,143,1,1.059,0.3,False,None,Z01,r2,2021-04-23_18h13.31.833,subsecond_timing_v2,2021.1.2,Win32,60.06366749
space,1.00688,space,1.0549,,,ms_large,0,144,144,144,1,1.2,0.1,False,None,Z01,r2,2021-04-23_18h13.31.833,subsecond_timing_v2,2021.1.2,Win32,60.06366749
space,0.87561,space,1.038215,,,ms_large,0,145,145,145,1,1.094,0.2,False,None,Z01,r2,2021-04-23_18h13.31.833,subsecond_timing_v2,2021.1.2,Win32,60.06366749
space,0.896835,space,1.034515,,,ms_large,0,146,146,146,1,1.024,0.3,False,None,Z01,r2,2021-04-23_18h13.31.833,subsecond_timing_v2,2021.1.2,Win32,60.06366749
space,0.85309,space,0.97792,,,ms_large,0,147,147,147,1,0.918,0.2,False,None,Z01,r2,2021-04-23_18h13.31.833,subsecond_timing_v2,2021.1.2,Win32,60.06366749
space,0.86751,space,1.142625,,,ms_large,0,148,148,148,1,1.129,0.3,False,None,Z01,r2,2021-04-23_18h13.31.833,subsecond_timing_v2,2021.1.2,Win32,60.06366749
space,0.90121,space,1.11983,,,ms_large,0,149,149,149,1,1.165,0.3,False,None,Z01,r2,2021-04-23_18h13.31.833,subsecond_timing_v2,2021.1.2,Win32,60.06366749
space,0.83212,space,0.96753,,,ms_large,0,150,150,150,1,0.882,0.1,False,None,Z01,r2,2021-04-23_18h13.31.833,subsecond_timing_v2,2021.1.2,Win32,60.06366749
space,0.735035,space,1.08982,,,ms_large,0,151,151,151,1,1.2,0.2,False,None,Z01,r2,2021-04-23_18h13.31.833,subsecond_timing_v2,2021.1.2,Win32,60.06366749
space,0.746225,space,0.8937,,,ms_large,0,152,152,152,1,0.953,0.3,False,None,Z01,r2,2021-04-23_18h13.31.833,subsecond_timing_v2,2021.1.2,Win32,60.06366749
space,0.674135,space,1.167135,,,ms_large,0,153,153,153,1,1.059,0.3,False,None,Z01,r2,2021-04-23_18h13.31.833,subsecond_timing_v2,2021.1.2,Win32,60.06366749
space,0.95081,space,0.951835,,,ms_large,0,154,154,154,1,0.918,0.2,False,None,Z01,r2,2021-04-23_18h13.31.833,subsecond_timing_v2,2021.1.2,Win32,60.06366749
space,0.85656,space,0.920495,,,ms_large,0,155,155,155,1,0.847,0.2,False,None,Z01,r2,2021-04-23_18h13.31.833,subsecond_timing_v2,2021.1.2,Win32,60.06366749
space,0.913365,space,1.00109,,,ms_large,0,156,156,156,1,1.129,0.3,False,None,Z01,r2,2021-04-23_18h13.31.833,subsecond_timing_v2,2021.1.2,Win32,60.06366749
space,0.78802,space,1.11985,,,ms_large,0,157,157,157,1,1.024,0.1,False,None,Z01,r2,2021-04-23_18h13.31.833,subsecond_timing_v2,2021.1.2,Win32,60.06366749
space,0.84403,space,1.167365,,,ms_large,0,158,158,158,1,0.988,0.2,False,None,Z01,r2,2021-04-23_18h13.31.833,subsecond_timing_v2,2021.1.2,Win32,60.06366749
space,0.90589,space,0.912255,,,ms_large,0,159,159,159,1,1.094,0.2,False,None,Z01,r2,2021-04-23_18h13.31.833,subsecond_timing_v2,2021.1.2,Win32,60.06366749
space,0.89155,space,1.15538,,,ms_large,0,160,160,160,1,1.129,0.2,False,None,Z01,r2,2021-04-23_18h13.31.833,subsecond_timing_v2,2021.1.2,Win32,60.06366749
space,0.923695,space,1.06842,,,ms_large,0,161,161,161,1,0.953,0.2,False,None,Z01,r2,2021-04-23_18h13.31.833,subsecond_timing_v2,2021.1.2,Win32,60.06366749
space,0.905765,space,1.060025,,,ms_large,0,162,162,162,1,0.847,0.3,False,None,Z01,r2,2021-04-23_18h13.31.833,subsecond_timing_v2,2021.1.2,Win32,60.06366749
space,1.07549,space,1.020475,,,ms_large,0,163,163,163,1,0.988,0.1,False,None,Z01,r2,2021-04-23_18h13.31.833,subsecond_timing_v2,2021.1.2,Win32,60.06366749
space,0.861025,space,0.93597,,,ms_large,0,164,164,164,1,0.882,0.1,False,None,Z01,r2,2021-04-23_18h13.31.833,subsecond_timing_v2,2021.1.2,Win32,60.06366749
space,0.892365,space,1.14058,,,ms_large,0,165,165,165,1,1.094,0.1,False,None,Z01,r2,2021-04-23_18h13.31.833,subsecond_timing_v2,2021.1.2,Win32,60.06366749
space,1.068145,space,1.217205,,,ms_large,0,166,166,166,1,0.918,0.2,False,None,Z01,r2,2021-04-23_18h13.31.833,subsecond_timing_v2,2021.1.2,Win32,60.06366749
space,0.83738,space,1.051315,,,ms_large,0,167,167,167,1,1.024,0.3,False,None,Z01,r2,2021-04-23_18h13.31.833,subsecond_timing_v2,2021.1.2,Win32,60.06366749
space,0.875195,space,1.00352,,,ms_large,0,168,168,168,1,1.059,0.1,False,None,Z01,r2,2021-04-23_18h13.31.833,subsecond_timing_v2,2021.1.2,Win32,60.06366749
space,0.867595,space,1.10071,,,ms_large,0,169,169,169,1,1.2,0.3,False,None,Z01,r2,2021-04-23_18h13.31.833,subsecond_timing_v2,2021.1.2,Win32,60.06366749
space,1.151385,space,1.18938,,,ms_large,0,170,170,170,1,1.165,0.3,False,None,Z01,r2,2021-04-23_18h13.31.833,subsecond_timing_v2,2021.1.2,Win32,60.06366749
space,1.202905,space,1.16721,,,ms_large,0,171,171,171,1,1.094,0.1,False,None,Z01,r2,2021-04-23_18h13.31.833,subsecond_timing_v2,2021.1.2,Win32,60.06366749
space,1.0408,space,1.108825,,,ms_large,0,172,172,172,1,1.024,0.1,False,None,Z01,r2,2021-04-23_18h13.31.833,subsecond_timing_v2,2021.1.2,Win32,60.06366749
space,0.961655,space,0.95708,,,ms_large,0,173,173,173,1,0.988,0.2,False,None,Z01,r2,2021-04-23_18h13.31.833,subsecond_timing_v2,2021.1.2,Win32,60.06366749
space,1.01165,space,1.13023,,,ms_large,0,174,174,174,1,1.165,0.3,False,None,Z01,r2,2021-04-23_18h13.31.833,subsecond_timing_v2,2021.1.2,Win32,60.06366749
space,0.91824,space,1.03039,,,ms_large,0,175,175,175,1,0.847,0.1,False,None,Z01,r2,2021-04-23_18h13.31.833,subsecond_timing_v2,2021.1.2,Win32,60.06366749
space,0.88767,space,0.96081,,,ms_large,0,176,176,176,1,1.2,0.1,False,None,Z01,r2,2021-04-23_18h13.31.833,subsecond_timing_v2,2021.1.2,Win32,60.06366749
space,0.87008,space,0.91681,,,ms_large,0,177,177,177,1,0.882,0.1,False,None,Z01,r2,2021-04-23_18h13.31.833,subsecond_timing_v2,2021.1.2,Win32,60.06366749
space,0.94606,space,1.018705,,,ms_large,0,178,178,178,1,1.129,0.1,False,None,Z01,r2,2021-04-23_18h13.31.833,subsecond_timing_v2,2021.1.2,Win32,60.06366749
space,0.83793,space,1.02914,,,ms_large,0,179,179,179,1,0.953,0.1,False,None,Z01,r2,2021-04-23_18h13.31.833,subsecond_timing_v2,2021.1.2,Win32,60.06366749
space,0.82962,space,1.056015,,,ms_large,0,180,180,180,1,0.918,0.3,False,None,Z01,r2,2021-04-23_18h13.31.833,subsecond_timing_v2,2021.1.2,Win32,60.06366749
space,0.86775,space,1.10937,,,ms_large,0,181,181,181,1,1.059,0.2,False,None,Z01,r2,2021-04-23_18h13.31.833,subsecond_timing_v2,2021.1.2,Win32,60.06366749
space,0.81238,space,1.077115,,,ms_large,0,182,182,182,1,1.165,0.1,False,None,Z01,r2,2021-04-23_18h13.31.833,subsecond_timing_v2,2021.1.2,Win32,60.06366749
space,0.839805,space,1.184525,,,ms_large,0,183,183,183,1,1.024,0.3,False,None,Z01,r2,2021-04-23_18h13.31.833,subsecond_timing_v2,2021.1.2,Win32,60.06366749
space,0.938285,space,1.09314,,,ms_large,0,184,184,184,1,1.2,0.2,False,None,Z01,r2,2021-04-23_18h13.31.833,subsecond_timing_v2,2021.1.2,Win32,60.06366749
space,1.027675,space,1.0232,,,ms_large,0,185,185,185,1,0.882,0.3,False,None,Z01,r2,2021-04-23_18h13.31.833,subsecond_timing_v2,2021.1.2,Win32,60.06366749
space,1.02894,space,1.08694,,,ms_large,0,186,186,186,1,1.129,0.3,False,None,Z01,r2,2021-04-23_18h13.31.833,subsecond_timing_v2,2021.1.2,Win32,60.06366749
space,1.135065,space,0.95981,,,ms_large,0,187,187,187,1,0.953,0.1,False,None,Z01,r2,2021-04-23_18h13.31.833,subsecond_timing_v2,2021.1.2,Win32,60.06366749
space,1.087605,space,0.890975,,,ms_large,0,188,188,188,1,0.988,0.1,False,None,Z01,r2,2021-04-23_18h13.31.833,subsecond_timing_v2,2021.1.2,Win32,60.06366749
space,0.991395,space,1.037235,,,ms_large,0,189,189,189,1,0.918,0.3,False,None,Z01,r2,2021-04-23_18h13.31.833,subsecond_timing_v2,2021.1.2,Win32,60.06366749
space,1.073835,space,1.014005,,,ms_large,0,190,190,190,1,1.059,0.2,False,None,Z01,r2,2021-04-23_18h13.31.833,subsecond_timing_v2,2021.1.2,Win32,60.06366749
space,1.163725,space,0.93757,,,ms_large,0,191,191,191,1,0.847,0.3,False,None,Z01,r2,2021-04-23_18h13.31.833,subsecond_timing_v2,2021.1.2,Win32,60.06366749
space,1.078955,space,0.986945,,,ms_large,0,192,192,192,1,1.094,0.3,False,None,Z01,r2,2021-04-23_18h13.31.833,subsecond_timing_v2,2021.1.2,Win32,60.06366749
space,1.104495,space,1.00447,,,ms_large,0,193,193,193,1,0.847,0.1,False,None,Z01,r2,2021-04-23_18h13.31.833,subsecond_timing_v2,2021.1.2,Win32,60.06366749
space,0.867715,space,1.002125,,,ms_large,0,194,194,194,1,1.2,0.2,False,None,Z01,r2,2021-04-23_18h13.31.833,subsecond_timing_v2,2021.1.2,Win32,60.06366749
space,0.94706,space,1.0341,,,ms_large,0,195,195,195,1,0.918,0.3,False,None,Z01,r2,2021-04-23_18h13.31.833,subsecond_timing_v2,2021.1.2,Win32,60.06366749
space,1.10803,space,1.003325,,,ms_large,0,196,196,196,1,1.024,0.2,False,None,Z01,r2,2021-04-23_18h13.31.833,subsecond_timing_v2,2021.1.2,Win32,60.06366749
space,1.02999,space,1.069595,,,ms_large,0,197,197,197,1,1.094,0.1,False,None,Z01,r2,2021-04-23_18h13.31.833,subsecond_timing_v2,2021.1.2,Win32,60.06366749
space,1.00765,space,0.94359,,,ms_large,0,198,198,198,1,0.953,0.1,False,None,Z01,r2,2021-04-23_18h13.31.833,subsecond_timing_v2,2021.1.2,Win32,60.06366749
space,0.8313,space,0.96805,,,ms_large,0,199,199,199,1,1.129,0.3,False,None,Z01,r2,2021-04-23_18h13.31.833,subsecond_timing_v2,2021.1.2,Win32,60.06366749
space,1.06726,space,0.906925,,,ms_large,0,200,200,200,1,0.988,0.1,False,None,Z01,r2,2021-04-23_18h13.31.833,subsecond_timing_v2,2021.1.2,Win32,60.06366749
space,0.957515,space,0.85622,,,ms_large,0,201,201,201,1,0.882,0.3,False,None,Z01,r2,2021-04-23_18h13.31.833,subsecond_timing_v2,2021.1.2,Win32,60.06366749
space,1.058345,space,0.968415,,,ms_large,0,202,202,202,1,1.059,0.3,False,None,Z01,r2,2021-04-23_18h13.31.833,subsecond_timing_v2,2021.1.2,Win32,60.06366749
space,1.114825,space,0.93488,,,ms_large,0,203,203,203,1,1.165,0.2,False,None,Z01,r2,2021-04-23_18h13.31.833,subsecond_timing_v2,2021.1.2,Win32,60.06366749
space,0.891705,space,0.957835,,,ms_large,0,204,204,204,1,0.953,0.2,False,None,Z01,r2,2021-04-23_18h13.31.833,subsecond_timing_v2,2021.1.2,Win32,60.06366749
space,0.85099,space,0.880655,,,ms_large,0,205,205,205,1,1.094,0.3,False,None,Z01,r2,2021-04-23_18h13.31.833,subsecond_timing_v2,2021.1.2,Win32,60.06366749
space,0.874085,space,1.035865,,,ms_large,0,206,206,206,1,1.2,0.2,False,None,Z01,r2,2021-04-23_18h13.31.833,subsecond_timing_v2,2021.1.2,Win32,60.06366749
space,0.855685,space,0.83833,,,ms_large,0,207,207,207,1,1.024,0.1,False,None,Z01,r2,2021-04-23_18h13.31.833,subsecond_timing_v2,2021.1.2,Win32,60.06366749
space,0.984625,space,0.90448,,,ms_large,0,208,208,208,1,0.847,0.3,False,None,Z01,r2,2021-04-23_18h13.31.833,subsecond_timing_v2,2021.1.2,Win32,60.06366749
space,0.91642,space,0.91889,,,ms_large,0,209,209,209,1,1.129,0.2,False,None,Z01,r2,2021-04-23_18h13.31.833,subsecond_timing_v2,2021.1.2,Win32,60.06366749
space,0.917545,space,1.05086,,,ms_large,0,210,210,210,1,1.165,0.3,False,None,Z01,r2,2021-04-23_18h13.31.833,subsecond_timing_v2,2021.1.2,Win32,60.06366749
space,0.950925,space,1.100785,,,ms_large,0,211,211,211,1,0.988,0.3,False,None,Z01,r2,2021-04-23_18h13.31.833,subsecond_timing_v2,2021.1.2,Win32,60.06366749
space,0.984165,space,0.899855,,,ms_large,0,212,212,212,1,0.882,0.3,False,None,Z01,r2,2021-04-23_18h13.31.833,subsecond_timing_v2,2021.1.2,Win32,60.06366749
space,0.95019,space,1.03407,,,ms_large,0,213,213,213,1,1.059,0.2,False,None,Z01,r2,2021-04-23_18h13.31.833,subsecond_timing_v2,2021.1.2,Win32,60.06366749
space,1.034015,space,1.00077,,,ms_large,0,214,214,214,1,0.918,0.3,False,None,Z01,r2,2021-04-23_18h13.31.833,subsecond_timing_v2,2021.1.2,Win32,60.06366749
space,1.000865,space,1.000865,,,ms_large,0,215,215,215,1,0.953,0.2,False,None,Z01,r2,2021-04-23_18h13.31.833,subsecond_timing_v2,2021.1.2,Win32,60.06366749
space,0.85083,space,1.03435,,,ms_large,0,216,216,216,1,0.847,0.3,False,None,Z01,r2,2021-04-23_18h13.31.833,subsecond_timing_v2,2021.1.2,Win32,60.06366749
space,0.934345,space,1.06759,,,ms_large,0,217,217,217,1,1.024,0.1,False,None,Z01,r2,2021-04-23_18h13.31.833,subsecond_timing_v2,2021.1.2,Win32,60.06366749
space,0.884025,space,0.917585,,,ms_large,0,218,218,218,1,1.059,0.3,False,None,Z01,r2,2021-04-23_18h13.31.833,subsecond_timing_v2,2021.1.2,Win32,60.06366749
space,0.984015,space,0.917575,,,ms_large,0,219,219,219,1,0.988,0.1,False,None,Z01,r2,2021-04-23_18h13.31.833,subsecond_timing_v2,2021.1.2,Win32,60.06366749
space,0.950785,space,1.134095,,,ms_large,0,220,220,220,1,1.094,0.1,False,None,Z01,r2,2021-04-23_18h13.31.833,subsecond_timing_v2,2021.1.2,Win32,60.06366749
space,1.21749,space,0.950785,,,ms_large,0,221,221,221,1,0.918,0.3,False,None,Z01,r2,2021-04-23_18h13.31.833,subsecond_timing_v2,2021.1.2,Win32,60.06366749
space,0.83398,space,0.86746,,,ms_large,0,222,222,222,1,0.882,0.1,False,None,Z01,r2,2021-04-23_18h13.31.833,subsecond_timing_v2,2021.1.2,Win32,60.06366749
space,0.96747,space,0.850695,,,ms_large,0,223,223,223,1,1.129,0.2,False,None,Z01,r2,2021-04-23_18h13.31.833,subsecond_timing_v2,2021.1.2,Win32,60.06366749
space,1.00077,space,1.084325,,,ms_large,0,224,224,224,1,1.165,0.3,False,None,Z01,r2,2021-04-23_18h13.31.833,subsecond_timing_v2,2021.1.2,Win32,60.06366749
space,1.134265,space,1.03401,,,ms_large,0,225,225,225,1,1.2,0.3,False,None,Z01,r2,2021-04-23_18h13.31.833,subsecond_timing_v2,2021.1.2,Win32,60.06366749
