key_resp_start.keys,key_resp_start.rt,key_resp_stop.keys,key_resp_stop.rt,feedback_range,hit,stimulus_range,trials.thisRepN,trials.thisTrialN,trials.thisN,trials.thisIndex,trials.ran,stimulus_duration,onset,feedback,feedback_range_fromfile,participant,session,date,expName,psychopyVersion,OS,frameRate
space,1.772165,space,0.763345,0.3,TRUE,Training,0,0,0,0,1,1,0.2,True,0.3,Z03,r2,2021-04-26_21h18.06.628,subsecond_timing_v2,2021.1.2,Win32,59.97720866
space,0.868435,space,0.557405,0.3,TRUE,Training,0,1,1,1,1,0.75,0.2,True,0.3,Z03,r2,2021-04-26_21h18.06.628,subsecond_timing_v2,2021.1.2,Win32,59.97720866
space,1.221805,space,0.53579,0.3,TRUE,Training,0,2,2,2,1,0.5,0.2,True,0.3,Z03,r2,2021-04-26_21h18.06.628,subsecond_timing_v2,2021.1.2,Win32,59.97720866
space,1.2196,space,0.46669,0.3,TRUE,Training,0,3,3,3,1,0.5,0.3,True,0.3,Z03,r2,2021-04-26_21h18.06.628,subsecond_timing_v2,2021.1.2,Win32,59.97720866
space,0.968145,space,0.669415,0.3,TRUE,Training,0,4,4,4,1,0.75,0.3,True,0.3,Z03,r2,2021-04-26_21h18.06.628,subsecond_timing_v2,2021.1.2,Win32,59.97720866
space,0.9361,space,0.942485,0.3,TRUE,Training,0,5,5,5,1,1,0.3,True,0.3,Z03,r2,2021-04-26_21h18.06.628,subsecond_timing_v2,2021.1.2,Win32,59.97720866
space,0.93553,space,0.789345,,,ms_large,0,6,6,6,1,1.165,0.2,False,None,Z03,r2,2021-04-26_21h18.06.628,subsecond_timing_v2,2021.1.2,Win32,59.97720866
space,0.87455,space,0.70017,,,ms_large,0,7,7,7,1,1.094,0.3,False,None,Z03,r2,2021-04-26_21h18.06.628,subsecond_timing_v2,2021.1.2,Win32,59.97720866
space,0.97155,space,0.73885,,,ms_large,0,8,8,8,1,1.2,0.3,False,None,Z03,r2,2021-04-26_21h18.06.628,subsecond_timing_v2,2021.1.2,Win32,59.97720866
space,1.00211,space,0.73283,,,ms_large,0,9,9,9,1,1.024,0.1,False,None,Z03,r2,2021-04-26_21h18.06.628,subsecond_timing_v2,2021.1.2,Win32,59.97720866
space,0.851725,space,0.703385,,,ms_large,0,10,10,10,1,0.953,0.3,False,None,Z03,r2,2021-04-26_21h18.06.628,subsecond_timing_v2,2021.1.2,Win32,59.97720866
space,0.96726,space,0.65356,,,ms_large,0,11,11,11,1,0.847,0.1,False,None,Z03,r2,2021-04-26_21h18.06.628,subsecond_timing_v2,2021.1.2,Win32,59.97720866
space,0.869075,space,0.668755,,,ms_large,0,12,12,12,1,0.882,0.3,False,None,Z03,r2,2021-04-26_21h18.06.628,subsecond_timing_v2,2021.1.2,Win32,59.97720866
space,1.03461,space,0.91838,,,ms_large,0,13,13,13,1,1.129,0.1,False,None,Z03,r2,2021-04-26_21h18.06.628,subsecond_timing_v2,2021.1.2,Win32,59.97720866
space,1.0367,space,0.93989,,,ms_large,0,14,14,14,1,1.059,0.3,False,None,Z03,r2,2021-04-26_21h18.06.628,subsecond_timing_v2,2021.1.2,Win32,59.97720866
space,0.987045,space,0.707685,,,ms_large,0,15,15,15,1,0.918,0.3,False,None,Z03,r2,2021-04-26_21h18.06.628,subsecond_timing_v2,2021.1.2,Win32,59.97720866
space,0.93789,space,0.78553,,,ms_large,0,16,16,16,1,0.988,0.1,False,None,Z03,r2,2021-04-26_21h18.06.628,subsecond_timing_v2,2021.1.2,Win32,59.97720866
space,0.868875,space,0.75484,,,ms_large,0,17,17,17,1,0.953,0.2,False,None,Z03,r2,2021-04-26_21h18.06.628,subsecond_timing_v2,2021.1.2,Win32,59.97720866
space,0.91754,space,0.90144,,,ms_large,0,18,18,18,1,1.129,0.3,False,None,Z03,r2,2021-04-26_21h18.06.628,subsecond_timing_v2,2021.1.2,Win32,59.97720866
space,0.937425,space,0.844225,,,ms_large,0,19,19,19,1,0.988,0.2,False,None,Z03,r2,2021-04-26_21h18.06.628,subsecond_timing_v2,2021.1.2,Win32,59.97720866
space,0.885425,space,0.803015,,,ms_large,0,20,20,20,1,1.024,0.1,False,None,Z03,r2,2021-04-26_21h18.06.628,subsecond_timing_v2,2021.1.2,Win32,59.97720866
space,0.97007,space,0.807645,,,ms_large,0,21,21,21,1,1.165,0.1,False,None,Z03,r2,2021-04-26_21h18.06.628,subsecond_timing_v2,2021.1.2,Win32,59.97720866
space,0.993135,space,0.952625,,,ms_large,0,22,22,22,1,1.2,0.1,False,None,Z03,r2,2021-04-26_21h18.06.628,subsecond_timing_v2,2021.1.2,Win32,59.97720866
space,0.900935,space,0.71811,,,ms_large,0,23,23,23,1,0.882,0.2,False,None,Z03,r2,2021-04-26_21h18.06.628,subsecond_timing_v2,2021.1.2,Win32,59.97720866
space,0.804655,space,0.756975,,,ms_large,0,24,24,24,1,0.847,0.3,False,None,Z03,r2,2021-04-26_21h18.06.628,subsecond_timing_v2,2021.1.2,Win32,59.97720866
space,0.98783,space,0.824885,,,ms_large,0,25,25,25,1,1.094,0.1,False,None,Z03,r2,2021-04-26_21h18.06.628,subsecond_timing_v2,2021.1.2,Win32,59.97720866
space,0.95363,space,0.78841,,,ms_large,0,26,26,26,1,1.059,0.1,False,None,Z03,r2,2021-04-26_21h18.06.628,subsecond_timing_v2,2021.1.2,Win32,59.97720866
space,0.878525,space,0.807665,,,ms_large,0,27,27,27,1,0.918,0.3,False,None,Z03,r2,2021-04-26_21h18.06.628,subsecond_timing_v2,2021.1.2,Win32,59.97720866
space,0.85423,space,0.82559,,,ms_large,0,28,28,28,1,0.988,0.2,False,None,Z03,r2,2021-04-26_21h18.06.628,subsecond_timing_v2,2021.1.2,Win32,59.97720866
space,0.837495,space,0.92025,,,ms_large,0,29,29,29,1,1.165,0.2,False,None,Z03,r2,2021-04-26_21h18.06.628,subsecond_timing_v2,2021.1.2,Win32,59.97720866
space,0.736915,space,0.98503,,,ms_large,0,30,30,30,1,1.129,0.1,False,None,Z03,r2,2021-04-26_21h18.06.628,subsecond_timing_v2,2021.1.2,Win32,59.97720866
space,0.8246,space,0.94358,,,ms_large,0,31,31,31,1,1.059,0.1,False,None,Z03,r2,2021-04-26_21h18.06.628,subsecond_timing_v2,2021.1.2,Win32,59.97720866
space,0.884935,space,0.719905,,,ms_large,0,32,32,32,1,0.918,0.3,False,None,Z03,r2,2021-04-26_21h18.06.628,subsecond_timing_v2,2021.1.2,Win32,59.97720866
space,0.603425,space,1.085105,,,ms_large,0,33,33,33,1,1.2,0.3,False,None,Z03,r2,2021-04-26_21h18.06.628,subsecond_timing_v2,2021.1.2,Win32,59.97720866
space,0.82431,space,0.79975,,,ms_large,0,34,34,34,1,0.847,0.1,False,None,Z03,r2,2021-04-26_21h18.06.628,subsecond_timing_v2,2021.1.2,Win32,59.97720866
space,0.91934,space,0.886035,,,ms_large,0,35,35,35,1,1.024,0.1,False,None,Z03,r2,2021-04-26_21h18.06.628,subsecond_timing_v2,2021.1.2,Win32,59.97720866
space,0.8884,space,0.91788,,,ms_large,0,36,36,36,1,0.882,0.1,False,None,Z03,r2,2021-04-26_21h18.06.628,subsecond_timing_v2,2021.1.2,Win32,59.97720866
space,0.83485,space,0.888715,,,ms_large,0,37,37,37,1,1.094,0.2,False,None,Z03,r2,2021-04-26_21h18.06.628,subsecond_timing_v2,2021.1.2,Win32,59.97720866
space,0.70648,space,0.82672,,,ms_large,0,38,38,38,1,0.953,0.1,False,None,Z03,r2,2021-04-26_21h18.06.628,subsecond_timing_v2,2021.1.2,Win32,59.97720866
space,0.809885,space,0.934855,,,ms_large,0,39,39,39,1,1.165,0.2,False,None,Z03,r2,2021-04-26_21h18.06.628,subsecond_timing_v2,2021.1.2,Win32,59.97720866
space,0.81653,space,1.000255,,,ms_large,0,40,40,40,1,0.953,0.1,False,None,Z03,r2,2021-04-26_21h18.06.628,subsecond_timing_v2,2021.1.2,Win32,59.97720866
space,0.88747,space,1.11797,,,ms_large,0,41,41,41,1,0.988,0.1,False,None,Z03,r2,2021-04-26_21h18.06.628,subsecond_timing_v2,2021.1.2,Win32,59.97720866
space,0.94553,space,0.874575,,,ms_large,0,42,42,42,1,1.094,0.1,False,None,Z03,r2,2021-04-26_21h18.06.628,subsecond_timing_v2,2021.1.2,Win32,59.97720866
space,1.07688,space,0.88761,,,ms_large,0,43,43,43,1,1.129,0.3,False,None,Z03,r2,2021-04-26_21h18.06.628,subsecond_timing_v2,2021.1.2,Win32,59.97720866
space,0.88613,space,0.90766,,,ms_large,0,44,44,44,1,0.882,0.2,False,None,Z03,r2,2021-04-26_21h18.06.628,subsecond_timing_v2,2021.1.2,Win32,59.97720866
space,0.95399,space,0.8925,,,ms_large,0,45,45,45,1,1.2,0.1,False,None,Z03,r2,2021-04-26_21h18.06.628,subsecond_timing_v2,2021.1.2,Win32,59.97720866
space,0.911075,space,0.9904,,,ms_large,0,46,46,46,1,1.024,0.1,False,None,Z03,r2,2021-04-26_21h18.06.628,subsecond_timing_v2,2021.1.2,Win32,59.97720866
space,0.96585,space,0.9427,,,ms_large,0,47,47,47,1,0.918,0.2,False,None,Z03,r2,2021-04-26_21h18.06.628,subsecond_timing_v2,2021.1.2,Win32,59.97720866
space,1.003795,space,0.825685,,,ms_large,0,48,48,48,1,0.847,0.1,False,None,Z03,r2,2021-04-26_21h18.06.628,subsecond_timing_v2,2021.1.2,Win32,59.97720866
space,1.041205,space,0.86842,,,ms_large,0,49,49,49,1,1.059,0.3,False,None,Z03,r2,2021-04-26_21h18.06.628,subsecond_timing_v2,2021.1.2,Win32,59.97720866
space,0.7549,space,0.833485,,,ms_large,0,50,50,50,1,0.953,0.2,False,None,Z03,r2,2021-04-26_21h18.06.628,subsecond_timing_v2,2021.1.2,Win32,59.97720866
space,0.992715,space,0.96859,,,ms_large,0,51,51,51,1,1.024,0.3,False,None,Z03,r2,2021-04-26_21h18.06.628,subsecond_timing_v2,2021.1.2,Win32,59.97720866
space,0.87433,space,0.93357,,,ms_large,0,52,52,52,1,1.165,0.3,False,None,Z03,r2,2021-04-26_21h18.06.628,subsecond_timing_v2,2021.1.2,Win32,59.97720866
space,1.00887,space,0.885205,,,ms_large,0,53,53,53,1,0.847,0.3,False,None,Z03,r2,2021-04-26_21h18.06.628,subsecond_timing_v2,2021.1.2,Win32,59.97720866
space,0.8453,space,1.050195,,,ms_large,0,54,54,54,1,1.2,0.1,False,None,Z03,r2,2021-04-26_21h18.06.628,subsecond_timing_v2,2021.1.2,Win32,59.97720866
space,0.93715,space,0.88551,,,ms_large,0,55,55,55,1,0.988,0.3,False,None,Z03,r2,2021-04-26_21h18.06.628,subsecond_timing_v2,2021.1.2,Win32,59.97720866
space,0.98941,space,0.8767,,,ms_large,0,56,56,56,1,0.882,0.1,False,None,Z03,r2,2021-04-26_21h18.06.628,subsecond_timing_v2,2021.1.2,Win32,59.97720866
space,1.007315,space,0.88621,,,ms_large,0,57,57,57,1,1.059,0.1,False,None,Z03,r2,2021-04-26_21h18.06.628,subsecond_timing_v2,2021.1.2,Win32,59.97720866
space,0.89374,space,0.8232,,,ms_large,0,58,58,58,1,1.094,0.1,False,None,Z03,r2,2021-04-26_21h18.06.628,subsecond_timing_v2,2021.1.2,Win32,59.97720866
space,1.00369,space,0.91829,,,ms_large,0,59,59,59,1,1.129,0.3,False,None,Z03,r2,2021-04-26_21h18.06.628,subsecond_timing_v2,2021.1.2,Win32,59.97720866
space,1.036155,space,0.89269,,,ms_large,0,60,60,60,1,0.918,0.3,False,None,Z03,r2,2021-04-26_21h18.06.628,subsecond_timing_v2,2021.1.2,Win32,59.97720866
space,1.12125,space,0.87053,,,ms_large,0,61,61,61,1,1.129,0.1,False,None,Z03,r2,2021-04-26_21h18.06.628,subsecond_timing_v2,2021.1.2,Win32,59.97720866
space,0.969945,space,0.984485,,,ms_large,0,62,62,62,1,1.165,0.3,False,None,Z03,r2,2021-04-26_21h18.06.628,subsecond_timing_v2,2021.1.2,Win32,59.97720866
space,0.96148,space,0.838865,,,ms_large,0,63,63,63,1,0.953,0.2,False,None,Z03,r2,2021-04-26_21h18.06.628,subsecond_timing_v2,2021.1.2,Win32,59.97720866
space,1.02035,space,0.75098,,,ms_large,0,64,64,64,1,1.094,0.2,False,None,Z03,r2,2021-04-26_21h18.06.628,subsecond_timing_v2,2021.1.2,Win32,59.97720866
space,0.961015,space,0.689545,,,ms_large,0,65,65,65,1,0.882,0.1,False,None,Z03,r2,2021-04-26_21h18.06.628,subsecond_timing_v2,2021.1.2,Win32,59.97720866
space,0.904125,space,0.84236,,,ms_large,0,66,66,66,1,0.918,0.2,False,None,Z03,r2,2021-04-26_21h18.06.628,subsecond_timing_v2,2021.1.2,Win32,59.97720866
space,0.736625,space,0.93437,,,ms_large,0,67,67,67,1,0.988,0.1,False,None,Z03,r2,2021-04-26_21h18.06.628,subsecond_timing_v2,2021.1.2,Win32,59.97720866
space,0.90752,space,0.867945,,,ms_large,0,68,68,68,1,1.024,0.1,False,None,Z03,r2,2021-04-26_21h18.06.628,subsecond_timing_v2,2021.1.2,Win32,59.97720866
space,0.803735,space,0.88927,,,ms_large,0,69,69,69,1,1.2,0.1,False,None,Z03,r2,2021-04-26_21h18.06.628,subsecond_timing_v2,2021.1.2,Win32,59.97720866
space,0.970995,space,0.80227,,,ms_large,0,70,70,70,1,1.059,0.1,False,None,Z03,r2,2021-04-26_21h18.06.628,subsecond_timing_v2,2021.1.2,Win32,59.97720866
space,1.035915,space,0.78497,,,ms_large,0,71,71,71,1,0.847,0.1,False,None,Z03,r2,2021-04-26_21h18.06.628,subsecond_timing_v2,2021.1.2,Win32,59.97720866
space,0.920545,space,1.006945,,,ms_large,0,72,72,72,1,1.094,0.2,False,None,Z03,r2,2021-04-26_21h18.06.628,subsecond_timing_v2,2021.1.2,Win32,59.97720866
space,1.05342,space,0.80438,,,ms_large,0,73,73,73,1,0.918,0.3,False,None,Z03,r2,2021-04-26_21h18.06.628,subsecond_timing_v2,2021.1.2,Win32,59.97720866
space,0.95273,space,0.790835,,,ms_large,0,74,74,74,1,0.953,0.2,False,None,Z03,r2,2021-04-26_21h18.06.628,subsecond_timing_v2,2021.1.2,Win32,59.97720866
space,0.87047,space,0.750655,,,ms_large,0,75,75,75,1,0.882,0.2,False,None,Z03,r2,2021-04-26_21h18.06.628,subsecond_timing_v2,2021.1.2,Win32,59.97720866
space,0.62107,space,1.11799,,,ms_large,0,76,76,76,1,0.988,0.3,False,None,Z03,r2,2021-04-26_21h18.06.628,subsecond_timing_v2,2021.1.2,Win32,59.97720866
space,0.969225,space,0.791675,,,ms_large,0,77,77,77,1,1.2,0.1,False,None,Z03,r2,2021-04-26_21h18.06.628,subsecond_timing_v2,2021.1.2,Win32,59.97720866
space,0.902235,space,0.85482,,,ms_large,0,78,78,78,1,1.024,0.2,False,None,Z03,r2,2021-04-26_21h18.06.628,subsecond_timing_v2,2021.1.2,Win32,59.97720866
space,0.895385,space,0.849535,,,ms_large,0,79,79,79,1,1.129,0.1,False,None,Z03,r2,2021-04-26_21h18.06.628,subsecond_timing_v2,2021.1.2,Win32,59.97720866
space,1.17028,space,1.067785,,,ms_large,0,80,80,80,1,1.165,0.3,False,None,Z03,r2,2021-04-26_21h18.06.628,subsecond_timing_v2,2021.1.2,Win32,59.97720866
space,0.987135,space,0.82134,,,ms_large,0,81,81,81,1,1.059,0.2,False,None,Z03,r2,2021-04-26_21h18.06.628,subsecond_timing_v2,2021.1.2,Win32,59.97720866
space,0.93573,space,0.784195,,,ms_large,0,82,82,82,1,0.847,0.1,False,None,Z03,r2,2021-04-26_21h18.06.628,subsecond_timing_v2,2021.1.2,Win32,59.97720866
space,0.9527,space,0.788975,,,ms_large,0,83,83,83,1,1.024,0.1,False,None,Z03,r2,2021-04-26_21h18.06.628,subsecond_timing_v2,2021.1.2,Win32,59.97720866
space,1.011505,space,0.83638,,,ms_large,0,84,84,84,1,1.059,0.3,False,None,Z03,r2,2021-04-26_21h18.06.628,subsecond_timing_v2,2021.1.2,Win32,59.97720866
space,1.058855,space,0.87496,,,ms_large,0,85,85,85,1,0.918,0.1,False,None,Z03,r2,2021-04-26_21h18.06.628,subsecond_timing_v2,2021.1.2,Win32,59.97720866
space,1.00631,space,0.92075,,,ms_large,0,86,86,86,1,1.165,0.1,False,None,Z03,r2,2021-04-26_21h18.06.628,subsecond_timing_v2,2021.1.2,Win32,59.97720866
space,1.1365,space,0.785895,,,ms_large,0,87,87,87,1,0.953,0.1,False,None,Z03,r2,2021-04-26_21h18.06.628,subsecond_timing_v2,2021.1.2,Win32,59.97720866
space,1.011815,space,0.784065,,,ms_large,0,88,88,88,1,0.882,0.1,False,None,Z03,r2,2021-04-26_21h18.06.628,subsecond_timing_v2,2021.1.2,Win32,59.97720866
space,1.09037,space,0.952175,,,ms_large,0,89,89,89,1,0.847,0.1,False,None,Z03,r2,2021-04-26_21h18.06.628,subsecond_timing_v2,2021.1.2,Win32,59.97720866
space,0.92431,space,0.868305,,,ms_large,0,90,90,90,1,1.094,0.1,False,None,Z03,r2,2021-04-26_21h18.06.628,subsecond_timing_v2,2021.1.2,Win32,59.97720866
space,0.97192,space,0.79022,,,ms_large,0,91,91,91,1,1.129,0.2,False,None,Z03,r2,2021-04-26_21h18.06.628,subsecond_timing_v2,2021.1.2,Win32,59.97720866
space,0.91953,space,0.926475,,,ms_large,0,92,92,92,1,1.2,0.1,False,None,Z03,r2,2021-04-26_21h18.06.628,subsecond_timing_v2,2021.1.2,Win32,59.97720866
space,1.002975,space,0.859765,,,ms_large,0,93,93,93,1,0.988,0.1,False,None,Z03,r2,2021-04-26_21h18.06.628,subsecond_timing_v2,2021.1.2,Win32,59.97720866
space,0.91008,space,0.96853,,,ms_large,0,94,94,94,1,1.129,0.3,False,None,Z03,r2,2021-04-26_21h18.06.628,subsecond_timing_v2,2021.1.2,Win32,59.97720866
space,0.87715,space,1.00076,,,ms_large,0,95,95,95,1,1.165,0.2,False,None,Z03,r2,2021-04-26_21h18.06.628,subsecond_timing_v2,2021.1.2,Win32,59.97720866
space,0.572125,space,1.134495,,,ms_large,0,96,96,96,1,1.024,0.3,False,None,Z03,r2,2021-04-26_21h18.06.628,subsecond_timing_v2,2021.1.2,Win32,59.97720866
space,0.61948,space,0.96705,,,ms_large,0,97,97,97,1,1.094,0.1,False,None,Z03,r2,2021-04-26_21h18.06.628,subsecond_timing_v2,2021.1.2,Win32,59.97720866
space,0.918425,space,0.884875,,,ms_large,0,98,98,98,1,1.059,0.2,False,None,Z03,r2,2021-04-26_21h18.06.628,subsecond_timing_v2,2021.1.2,Win32,59.97720866
space,0.87358,space,1.117895,,,ms_large,0,99,99,99,1,1.2,0.1,False,None,Z03,r2,2021-04-26_21h18.06.628,subsecond_timing_v2,2021.1.2,Win32,59.97720866
space,0.936815,space,0.883465,,,ms_large,0,100,100,100,1,0.882,0.3,False,None,Z03,r2,2021-04-26_21h18.06.628,subsecond_timing_v2,2021.1.2,Win32,59.97720866
space,0.952485,space,0.902995,,,ms_large,0,101,101,101,1,0.918,0.3,False,None,Z03,r2,2021-04-26_21h18.06.628,subsecond_timing_v2,2021.1.2,Win32,59.97720866
space,0.96967,space,0.88503,,,ms_large,0,102,102,102,1,0.988,0.3,False,None,Z03,r2,2021-04-26_21h18.06.628,subsecond_timing_v2,2021.1.2,Win32,59.97720866
space,0.90644,space,0.748945,,,ms_large,0,103,103,103,1,0.847,0.1,False,None,Z03,r2,2021-04-26_21h18.06.628,subsecond_timing_v2,2021.1.2,Win32,59.97720866
space,0.93768,space,0.751745,,,ms_large,0,104,104,104,1,0.953,0.3,False,None,Z03,r2,2021-04-26_21h18.06.628,subsecond_timing_v2,2021.1.2,Win32,59.97720866
space,0.967035,space,0.801325,,,ms_large,0,105,105,105,1,0.847,0.3,False,None,Z03,r2,2021-04-26_21h18.06.628,subsecond_timing_v2,2021.1.2,Win32,59.97720866
space,0.925725,space,0.790595,,,ms_large,0,106,106,106,1,1.094,0.3,False,None,Z03,r2,2021-04-26_21h18.06.628,subsecond_timing_v2,2021.1.2,Win32,59.97720866
space,0.85482,space,0.951095,,,ms_large,0,107,107,107,1,1.129,0.3,False,None,Z03,r2,2021-04-26_21h18.06.628,subsecond_timing_v2,2021.1.2,Win32,59.97720866
space,0.92629,space,0.874355,,,ms_large,0,108,108,108,1,0.882,0.3,False,None,Z03,r2,2021-04-26_21h18.06.628,subsecond_timing_v2,2021.1.2,Win32,59.97720866
space,0.870305,space,0.758115,,,ms_large,0,109,109,109,1,0.953,0.2,False,None,Z03,r2,2021-04-26_21h18.06.628,subsecond_timing_v2,2021.1.2,Win32,59.97720866
space,1.038105,space,0.98529,,,ms_large,0,110,110,110,1,0.988,0.1,False,None,Z03,r2,2021-04-26_21h18.06.628,subsecond_timing_v2,2021.1.2,Win32,59.97720866
space,0.97177,space,0.95214,,,ms_large,0,111,111,111,1,1.165,0.3,False,None,Z03,r2,2021-04-26_21h18.06.628,subsecond_timing_v2,2021.1.2,Win32,59.97720866
space,0.906775,space,0.839955,,,ms_large,0,112,112,112,1,0.918,0.2,False,None,Z03,r2,2021-04-26_21h18.06.628,subsecond_timing_v2,2021.1.2,Win32,59.97720866
space,0.892985,space,0.88938,,,ms_large,0,113,113,113,1,1.059,0.3,False,None,Z03,r2,2021-04-26_21h18.06.628,subsecond_timing_v2,2021.1.2,Win32,59.97720866
space,0.936075,space,1.091055,,,ms_large,0,114,114,114,1,1.2,0.2,False,None,Z03,r2,2021-04-26_21h18.06.628,subsecond_timing_v2,2021.1.2,Win32,59.97720866
space,0.904695,space,0.99324,,,ms_large,0,115,115,115,1,1.024,0.3,False,None,Z03,r2,2021-04-26_21h18.06.628,subsecond_timing_v2,2021.1.2,Win32,59.97720866
space,0.886895,space,1.14938,,,ms_large,0,116,116,116,1,1.129,0.3,False,None,Z03,r2,2021-04-26_21h18.06.628,subsecond_timing_v2,2021.1.2,Win32,59.97720866
space,1.066835,space,1.21664,,,ms_large,0,117,117,117,1,1.2,0.3,False,None,Z03,r2,2021-04-26_21h18.06.628,subsecond_timing_v2,2021.1.2,Win32,59.97720866
space,1.223385,space,1.017495,,,ms_large,0,118,118,118,1,1.024,0.3,False,None,Z03,r2,2021-04-26_21h18.06.628,subsecond_timing_v2,2021.1.2,Win32,59.97720866
space,1.039705,space,0.921805,,,ms_large,0,119,119,119,1,1.094,0.1,False,None,Z03,r2,2021-04-26_21h18.06.628,subsecond_timing_v2,2021.1.2,Win32,59.97720866
space,1.03522,space,0.85205,,,ms_large,0,120,120,120,1,1.059,0.1,False,None,Z03,r2,2021-04-26_21h18.06.628,subsecond_timing_v2,2021.1.2,Win32,59.97720866
space,1.07851,space,0.901075,,,ms_large,0,121,121,121,1,0.988,0.2,False,None,Z03,r2,2021-04-26_21h18.06.628,subsecond_timing_v2,2021.1.2,Win32,59.97720866
space,1.02066,space,0.975975,,,ms_large,0,122,122,122,1,0.847,0.3,False,None,Z03,r2,2021-04-26_21h18.06.628,subsecond_timing_v2,2021.1.2,Win32,59.97720866
space,1.13674,space,1.02068,,,ms_large,0,123,123,123,1,0.953,0.2,False,None,Z03,r2,2021-04-26_21h18.06.628,subsecond_timing_v2,2021.1.2,Win32,59.97720866
space,0.956015,space,0.80021,,,ms_large,0,124,124,124,1,0.918,0.2,False,None,Z03,r2,2021-04-26_21h18.06.628,subsecond_timing_v2,2021.1.2,Win32,59.97720866
space,0.937205,space,1.068915,,,ms_large,0,125,125,125,1,1.165,0.2,False,None,Z03,r2,2021-04-26_21h18.06.628,subsecond_timing_v2,2021.1.2,Win32,59.97720866
space,0.95296,space,0.974105,,,ms_large,0,126,126,126,1,0.882,0.3,False,None,Z03,r2,2021-04-26_21h18.06.628,subsecond_timing_v2,2021.1.2,Win32,59.97720866
space,1.070695,space,1.05306,,,ms_large,0,127,127,127,1,0.882,0.2,False,None,Z03,r2,2021-04-26_21h18.06.628,subsecond_timing_v2,2021.1.2,Win32,59.97720866
space,0.904835,space,0.934495,,,ms_large,0,128,128,128,1,1.094,0.2,False,None,Z03,r2,2021-04-26_21h18.06.628,subsecond_timing_v2,2021.1.2,Win32,59.97720866
space,1.10292,space,0.823695,,,ms_large,0,129,129,129,1,1.024,0.3,False,None,Z03,r2,2021-04-26_21h18.06.628,subsecond_timing_v2,2021.1.2,Win32,59.97720866
space,1.119315,space,0.88404,,,ms_large,0,130,130,130,1,0.847,0.1,False,None,Z03,r2,2021-04-26_21h18.06.628,subsecond_timing_v2,2021.1.2,Win32,59.97720866
space,0.92024,space,0.834415,,,ms_large,0,131,131,131,1,1.2,0.1,False,None,Z03,r2,2021-04-26_21h18.06.628,subsecond_timing_v2,2021.1.2,Win32,59.97720866
space,1.04076,space,0.809545,,,ms_large,0,132,132,132,1,1.059,0.3,False,None,Z03,r2,2021-04-26_21h18.06.628,subsecond_timing_v2,2021.1.2,Win32,59.97720866
space,1.088085,space,0.81839,,,ms_large,0,133,133,133,1,0.918,0.1,False,None,Z03,r2,2021-04-26_21h18.06.628,subsecond_timing_v2,2021.1.2,Win32,59.97720866
space,1.01973,space,1.118845,,,ms_large,0,134,134,134,1,1.129,0.3,False,None,Z03,r2,2021-04-26_21h18.06.628,subsecond_timing_v2,2021.1.2,Win32,59.97720866
space,1.086705,space,1.0002,,,ms_large,0,135,135,135,1,1.165,0.2,False,None,Z03,r2,2021-04-26_21h18.06.628,subsecond_timing_v2,2021.1.2,Win32,59.97720866
space,1.008395,space,1.0019,,,ms_large,0,136,136,136,1,0.953,0.1,False,None,Z03,r2,2021-04-26_21h18.06.628,subsecond_timing_v2,2021.1.2,Win32,59.97720866
space,0.9202,space,0.95213,,,ms_large,0,137,137,137,1,0.988,0.3,False,None,Z03,r2,2021-04-26_21h18.06.628,subsecond_timing_v2,2021.1.2,Win32,59.97720866
space,0.921375,space,0.73582,,,ms_large,0,138,138,138,1,0.847,0.1,False,None,Z03,r2,2021-04-26_21h18.06.628,subsecond_timing_v2,2021.1.2,Win32,59.97720866
space,0.895005,space,0.75155,,,ms_large,0,139,139,139,1,0.882,0.1,False,None,Z03,r2,2021-04-26_21h18.06.628,subsecond_timing_v2,2021.1.2,Win32,59.97720866
space,1.40494,space,0.795265,,,ms_large,0,140,140,140,1,0.988,0.3,False,None,Z03,r2,2021-04-26_21h18.06.628,subsecond_timing_v2,2021.1.2,Win32,59.97720866
space,0.83665,space,0.76676,,,ms_large,0,141,141,141,1,0.953,0.1,False,None,Z03,r2,2021-04-26_21h18.06.628,subsecond_timing_v2,2021.1.2,Win32,59.97720866
space,1.11945,space,1.285325,,,ms_large,0,142,142,142,1,1.165,0.2,False,None,Z03,r2,2021-04-26_21h18.06.628,subsecond_timing_v2,2021.1.2,Win32,59.97720866
space,0.9034,space,0.92624,,,ms_large,0,143,143,143,1,1.059,0.3,False,None,Z03,r2,2021-04-26_21h18.06.628,subsecond_timing_v2,2021.1.2,Win32,59.97720866
space,0.953845,space,1.22602,,,ms_large,0,144,144,144,1,1.2,0.1,False,None,Z03,r2,2021-04-26_21h18.06.628,subsecond_timing_v2,2021.1.2,Win32,59.97720866
space,0.76941,space,1.158075,,,ms_large,0,145,145,145,1,1.094,0.2,False,None,Z03,r2,2021-04-26_21h18.06.628,subsecond_timing_v2,2021.1.2,Win32,59.97720866
space,1.069965,space,1.118095,,,ms_large,0,146,146,146,1,1.024,0.3,False,None,Z03,r2,2021-04-26_21h18.06.628,subsecond_timing_v2,2021.1.2,Win32,59.97720866
space,1.10348,space,0.768645,,,ms_large,0,147,147,147,1,0.918,0.2,False,None,Z03,r2,2021-04-26_21h18.06.628,subsecond_timing_v2,2021.1.2,Win32,59.97720866
space,0.976975,space,1.12841,,,ms_large,0,148,148,148,1,1.129,0.3,False,None,Z03,r2,2021-04-26_21h18.06.628,subsecond_timing_v2,2021.1.2,Win32,59.97720866
space,0.91669,space,1.23741,,,ms_large,0,149,149,149,1,1.165,0.3,False,None,Z03,r2,2021-04-26_21h18.06.628,subsecond_timing_v2,2021.1.2,Win32,59.97720866
space,1.019215,space,0.701835,,,ms_large,0,150,150,150,1,0.882,0.1,False,None,Z03,r2,2021-04-26_21h18.06.628,subsecond_timing_v2,2021.1.2,Win32,59.97720866
space,0.754075,space,1.46676,,,ms_large,0,151,151,151,1,1.2,0.2,False,None,Z03,r2,2021-04-26_21h18.06.628,subsecond_timing_v2,2021.1.2,Win32,59.97720866
space,0.686145,space,1.153215,,,ms_large,0,152,152,152,1,0.953,0.3,False,None,Z03,r2,2021-04-26_21h18.06.628,subsecond_timing_v2,2021.1.2,Win32,59.97720866
space,1.05129,space,1.12288,,,ms_large,0,153,153,153,1,1.059,0.3,False,None,Z03,r2,2021-04-26_21h18.06.628,subsecond_timing_v2,2021.1.2,Win32,59.97720866
space,0.953695,space,1.00375,,,ms_large,0,154,154,154,1,0.918,0.2,False,None,Z03,r2,2021-04-26_21h18.06.628,subsecond_timing_v2,2021.1.2,Win32,59.97720866
space,1.119615,space,0.910195,,,ms_large,0,155,155,155,1,0.847,0.2,False,None,Z03,r2,2021-04-26_21h18.06.628,subsecond_timing_v2,2021.1.2,Win32,59.97720866
space,0.97082,space,0.883555,,,ms_large,0,156,156,156,1,1.129,0.3,False,None,Z03,r2,2021-04-26_21h18.06.628,subsecond_timing_v2,2021.1.2,Win32,59.97720866
space,0.968265,space,0.827255,,,ms_large,0,157,157,157,1,1.024,0.1,False,None,Z03,r2,2021-04-26_21h18.06.628,subsecond_timing_v2,2021.1.2,Win32,59.97720866
space,0.927055,space,0.85489,,,ms_large,0,158,158,158,1,0.988,0.2,False,None,Z03,r2,2021-04-26_21h18.06.628,subsecond_timing_v2,2021.1.2,Win32,59.97720866
space,0.83882,space,1.409165,,,ms_large,0,159,159,159,1,1.094,0.2,False,None,Z03,r2,2021-04-26_21h18.06.628,subsecond_timing_v2,2021.1.2,Win32,59.97720866
space,0.97502,space,0.957035,,,ms_large,0,160,160,160,1,1.129,0.2,False,None,Z03,r2,2021-04-26_21h18.06.628,subsecond_timing_v2,2021.1.2,Win32,59.97720866
space,0.970375,space,0.701085,,,ms_large,0,161,161,161,1,0.953,0.2,False,None,Z03,r2,2021-04-26_21h18.06.628,subsecond_timing_v2,2021.1.2,Win32,59.97720866
space,0.98726,space,0.700015,,,ms_large,0,162,162,162,1,0.847,0.3,False,None,Z03,r2,2021-04-26_21h18.06.628,subsecond_timing_v2,2021.1.2,Win32,59.97720866
space,0.83555,space,0.85465,,,ms_large,0,163,163,163,1,0.988,0.1,False,None,Z03,r2,2021-04-26_21h18.06.628,subsecond_timing_v2,2021.1.2,Win32,59.97720866
space,0.769995,space,0.74168,,,ms_large,0,164,164,164,1,0.882,0.1,False,None,Z03,r2,2021-04-26_21h18.06.628,subsecond_timing_v2,2021.1.2,Win32,59.97720866
space,0.753965,space,0.77373,,,ms_large,0,165,165,165,1,1.094,0.1,False,None,Z03,r2,2021-04-26_21h18.06.628,subsecond_timing_v2,2021.1.2,Win32,59.97720866
space,0.85475,space,0.849205,,,ms_large,0,166,166,166,1,0.918,0.2,False,None,Z03,r2,2021-04-26_21h18.06.628,subsecond_timing_v2,2021.1.2,Win32,59.97720866
space,0.83742,space,0.766445,,,ms_large,0,167,167,167,1,1.024,0.3,False,None,Z03,r2,2021-04-26_21h18.06.628,subsecond_timing_v2,2021.1.2,Win32,59.97720866
space,0.923925,space,1.052295,,,ms_large,0,168,168,168,1,1.059,0.1,False,None,Z03,r2,2021-04-26_21h18.06.628,subsecond_timing_v2,2021.1.2,Win32,59.97720866
space,1.00234,space,1.121925,,,ms_large,0,169,169,169,1,1.2,0.3,False,None,Z03,r2,2021-04-26_21h18.06.628,subsecond_timing_v2,2021.1.2,Win32,59.97720866
space,0.40213,space,1.00226,,,ms_large,0,170,170,170,1,1.165,0.3,False,None,Z03,r2,2021-04-26_21h18.06.628,subsecond_timing_v2,2021.1.2,Win32,59.97720866
space,0.87031,space,1.0067,,,ms_large,0,171,171,171,1,1.094,0.1,False,None,Z03,r2,2021-04-26_21h18.06.628,subsecond_timing_v2,2021.1.2,Win32,59.97720866
space,0.936975,space,1.15653,,,ms_large,0,172,172,172,1,1.024,0.1,False,None,Z03,r2,2021-04-26_21h18.06.628,subsecond_timing_v2,2021.1.2,Win32,59.97720866
space,0.871515,space,1.25292,,,ms_large,0,173,173,173,1,0.988,0.2,False,None,Z03,r2,2021-04-26_21h18.06.628,subsecond_timing_v2,2021.1.2,Win32,59.97720866
space,0.8726,space,1.044125,,,ms_large,0,174,174,174,1,1.165,0.3,False,None,Z03,r2,2021-04-26_21h18.06.628,subsecond_timing_v2,2021.1.2,Win32,59.97720866
space,0.80342,space,0.716595,,,ms_large,0,175,175,175,1,0.847,0.1,False,None,Z03,r2,2021-04-26_21h18.06.628,subsecond_timing_v2,2021.1.2,Win32,59.97720866
space,0.695425,space,1.20234,,,ms_large,0,176,176,176,1,1.2,0.1,False,None,Z03,r2,2021-04-26_21h18.06.628,subsecond_timing_v2,2021.1.2,Win32,59.97720866
space,0.90328,space,0.766515,,,ms_large,0,177,177,177,1,0.882,0.1,False,None,Z03,r2,2021-04-26_21h18.06.628,subsecond_timing_v2,2021.1.2,Win32,59.97720866
space,0.60782,space,1.07122,,,ms_large,0,178,178,178,1,1.129,0.1,False,None,Z03,r2,2021-04-26_21h18.06.628,subsecond_timing_v2,2021.1.2,Win32,59.97720866
space,0.68577,space,1.223465,,,ms_large,0,179,179,179,1,0.953,0.1,False,None,Z03,r2,2021-04-26_21h18.06.628,subsecond_timing_v2,2021.1.2,Win32,59.97720866
space,0.707245,space,1.025005,,,ms_large,0,180,180,180,1,0.918,0.3,False,None,Z03,r2,2021-04-26_21h18.06.628,subsecond_timing_v2,2021.1.2,Win32,59.97720866
space,0.703185,space,0.968515,,,ms_large,0,181,181,181,1,1.059,0.2,False,None,Z03,r2,2021-04-26_21h18.06.628,subsecond_timing_v2,2021.1.2,Win32,59.97720866
space,0.78658,space,1.018985,,,ms_large,0,182,182,182,1,1.165,0.1,False,None,Z03,r2,2021-04-26_21h18.06.628,subsecond_timing_v2,2021.1.2,Win32,59.97720866
space,0.90355,space,1.15636,,,ms_large,0,183,183,183,1,1.024,0.3,False,None,Z03,r2,2021-04-26_21h18.06.628,subsecond_timing_v2,2021.1.2,Win32,59.97720866
space,0.901555,space,0.903295,,,ms_large,0,184,184,184,1,1.2,0.2,False,None,Z03,r2,2021-04-26_21h18.06.628,subsecond_timing_v2,2021.1.2,Win32,59.97720866
space,0.86918,space,0.818975,,,ms_large,0,185,185,185,1,0.882,0.3,False,None,Z03,r2,2021-04-26_21h18.06.628,subsecond_timing_v2,2021.1.2,Win32,59.97720866
space,1.0084,space,0.969845,,,ms_large,0,186,186,186,1,1.129,0.3,False,None,Z03,r2,2021-04-26_21h18.06.628,subsecond_timing_v2,2021.1.2,Win32,59.97720866
space,1.11936,space,0.771855,,,ms_large,0,187,187,187,1,0.953,0.1,False,None,Z03,r2,2021-04-26_21h18.06.628,subsecond_timing_v2,2021.1.2,Win32,59.97720866
space,1.070715,space,0.78828,,,ms_large,0,188,188,188,1,0.988,0.1,False,None,Z03,r2,2021-04-26_21h18.06.628,subsecond_timing_v2,2021.1.2,Win32,59.97720866
space,1.020275,space,0.90053,,,ms_large,0,189,189,189,1,0.918,0.3,False,None,Z03,r2,2021-04-26_21h18.06.628,subsecond_timing_v2,2021.1.2,Win32,59.97720866
space,0.97549,space,0.883655,,,ms_large,0,190,190,190,1,1.059,0.2,False,None,Z03,r2,2021-04-26_21h18.06.628,subsecond_timing_v2,2021.1.2,Win32,59.97720866
space,1.153165,space,0.73702,,,ms_large,0,191,191,191,1,0.847,0.3,False,None,Z03,r2,2021-04-26_21h18.06.628,subsecond_timing_v2,2021.1.2,Win32,59.97720866
space,1.06156,space,0.7174,,,ms_large,0,192,192,192,1,1.094,0.3,False,None,Z03,r2,2021-04-26_21h18.06.628,subsecond_timing_v2,2021.1.2,Win32,59.97720866
space,0.93607,space,0.96825,,,ms_large,0,193,193,193,1,0.847,0.1,False,None,Z03,r2,2021-04-26_21h18.06.628,subsecond_timing_v2,2021.1.2,Win32,59.97720866
space,0.787055,space,1.019875,,,ms_large,0,194,194,194,1,1.2,0.2,False,None,Z03,r2,2021-04-26_21h18.06.628,subsecond_timing_v2,2021.1.2,Win32,59.97720866
space,0.471615,space,1.1344,,,ms_large,0,195,195,195,1,0.918,0.3,False,None,Z03,r2,2021-04-26_21h18.06.628,subsecond_timing_v2,2021.1.2,Win32,59.97720866
space,1.003555,space,0.824725,,,ms_large,0,196,196,196,1,1.024,0.2,False,None,Z03,r2,2021-04-26_21h18.06.628,subsecond_timing_v2,2021.1.2,Win32,59.97720866
space,0.969185,space,1.017715,,,ms_large,0,197,197,197,1,1.094,0.1,False,None,Z03,r2,2021-04-26_21h18.06.628,subsecond_timing_v2,2021.1.2,Win32,59.97720866
space,0.99573,space,0.83474,,,ms_large,0,198,198,198,1,0.953,0.1,False,None,Z03,r2,2021-04-26_21h18.06.628,subsecond_timing_v2,2021.1.2,Win32,59.97720866
space,0.837995,space,1.109895,,,ms_large,0,199,199,199,1,1.129,0.3,False,None,Z03,r2,2021-04-26_21h18.06.628,subsecond_timing_v2,2021.1.2,Win32,59.97720866
space,0.958795,space,0.920825,,,ms_large,0,200,200,200,1,0.988,0.1,False,None,Z03,r2,2021-04-26_21h18.06.628,subsecond_timing_v2,2021.1.2,Win32,59.97720866
space,0.870445,space,0.838665,,,ms_large,0,201,201,201,1,0.882,0.3,False,None,Z03,r2,2021-04-26_21h18.06.628,subsecond_timing_v2,2021.1.2,Win32,59.97720866
space,0.98533,space,0.98487,,,ms_large,0,202,202,202,1,1.059,0.3,False,None,Z03,r2,2021-04-26_21h18.06.628,subsecond_timing_v2,2021.1.2,Win32,59.97720866
space,0.937205,space,1.168105,,,ms_large,0,203,203,203,1,1.165,0.2,False,None,Z03,r2,2021-04-26_21h18.06.628,subsecond_timing_v2,2021.1.2,Win32,59.97720866
space,1.003975,space,1.04262,,,ms_large,0,204,204,204,1,0.953,0.2,False,None,Z03,r2,2021-04-26_21h18.06.628,subsecond_timing_v2,2021.1.2,Win32,59.97720866
space,0.83774,space,1.03813,,,ms_large,0,205,205,205,1,1.094,0.3,False,None,Z03,r2,2021-04-26_21h18.06.628,subsecond_timing_v2,2021.1.2,Win32,59.97720866
space,0.853905,space,1.018605,,,ms_large,0,206,206,206,1,1.2,0.2,False,None,Z03,r2,2021-04-26_21h18.06.628,subsecond_timing_v2,2021.1.2,Win32,59.97720866
space,0.903995,space,0.834265,,,ms_large,0,207,207,207,1,1.024,0.1,False,None,Z03,r2,2021-04-26_21h18.06.628,subsecond_timing_v2,2021.1.2,Win32,59.97720866
space,0.926215,space,1.08666,,,ms_large,0,208,208,208,1,0.847,0.3,False,None,Z03,r2,2021-04-26_21h18.06.628,subsecond_timing_v2,2021.1.2,Win32,59.97720866
space,0.893585,space,1.31869,,,ms_large,0,209,209,209,1,1.129,0.2,False,None,Z03,r2,2021-04-26_21h18.06.628,subsecond_timing_v2,2021.1.2,Win32,59.97720866
space,0.88809,space,0.867915,,,ms_large,0,210,210,210,1,1.165,0.3,False,None,Z03,r2,2021-04-26_21h18.06.628,subsecond_timing_v2,2021.1.2,Win32,59.97720866
space,0.85526,space,0.85843,,,ms_large,0,211,211,211,1,0.988,0.3,False,None,Z03,r2,2021-04-26_21h18.06.628,subsecond_timing_v2,2021.1.2,Win32,59.97720866
space,0.97114,space,0.852545,,,ms_large,0,212,212,212,1,0.882,0.3,False,None,Z03,r2,2021-04-26_21h18.06.628,subsecond_timing_v2,2021.1.2,Win32,59.97720866
space,1.0094,space,1.118455,,,ms_large,0,213,213,213,1,1.059,0.2,False,None,Z03,r2,2021-04-26_21h18.06.628,subsecond_timing_v2,2021.1.2,Win32,59.97720866
space,1.103815,space,0.93391,,,ms_large,0,214,214,214,1,0.918,0.3,False,None,Z03,r2,2021-04-26_21h18.06.628,subsecond_timing_v2,2021.1.2,Win32,59.97720866
space,1.08901,space,1.000235,,,ms_large,0,215,215,215,1,0.953,0.2,False,None,Z03,r2,2021-04-26_21h18.06.628,subsecond_timing_v2,2021.1.2,Win32,59.97720866
space,1.02703,space,1.025935,,,ms_large,0,216,216,216,1,0.847,0.3,False,None,Z03,r2,2021-04-26_21h18.06.628,subsecond_timing_v2,2021.1.2,Win32,59.97720866
space,1.038865,space,1.03558,,,ms_large,0,217,217,217,1,1.024,0.1,False,None,Z03,r2,2021-04-26_21h18.06.628,subsecond_timing_v2,2021.1.2,Win32,59.97720866
space,0.91232,space,1.04998,,,ms_large,0,218,218,218,1,1.059,0.3,False,None,Z03,r2,2021-04-26_21h18.06.628,subsecond_timing_v2,2021.1.2,Win32,59.97720866
space,0.972265,space,1.050385,,,ms_large,0,219,219,219,1,0.988,0.1,False,None,Z03,r2,2021-04-26_21h18.06.628,subsecond_timing_v2,2021.1.2,Win32,59.97720866
space,1.0041,space,1.217355,,,ms_large,0,220,220,220,1,1.094,0.1,False,None,Z03,r2,2021-04-26_21h18.06.628,subsecond_timing_v2,2021.1.2,Win32,59.97720866
space,0.987345,space,0.96827,,,ms_large,0,221,221,221,1,0.918,0.3,False,None,Z03,r2,2021-04-26_21h18.06.628,subsecond_timing_v2,2021.1.2,Win32,59.97720866
space,0.97539,space,1.03642,,,ms_large,0,222,222,222,1,0.882,0.1,False,None,Z03,r2,2021-04-26_21h18.06.628,subsecond_timing_v2,2021.1.2,Win32,59.97720866
space,0.887675,space,1.35331,,,ms_large,0,223,223,223,1,1.129,0.2,False,None,Z03,r2,2021-04-26_21h18.06.628,subsecond_timing_v2,2021.1.2,Win32,59.97720866
space,0.95649,space,0.90782,,,ms_large,0,224,224,224,1,1.165,0.3,False,None,Z03,r2,2021-04-26_21h18.06.628,subsecond_timing_v2,2021.1.2,Win32,59.97720866
space,0.786895,space,1.28654,,,ms_large,0,225,225,225,1,1.2,0.3,False,None,Z03,r2,2021-04-26_21h18.06.628,subsecond_timing_v2,2021.1.2,Win32,59.97720866
