stimulus_range,stimulus_duration,onset,feedback,feedback_range_fromfile,trials.thisRepN,trials.thisTrialN,trials.thisN,trials.thisIndex,fixation_cross.started,fixation_cross.stopped,interval_start.started,interval_start.stopped,interval_end.started,interval_end.stopped,key_resp_start.keys,key_resp_start.rt,key_resp_start.started,key_resp_start.stopped,fixation_cross_reproduction.started,fixation_cross_reproduction.stopped,reproduction_start.started,reproduction_start.stopped,key_resp_stop.keys,key_resp_stop.rt,key_resp_stop.started,key_resp_stop.stopped,feedback_range,hit,stimulus_range,reproduction_end.started,reproduction_end.stopped,fixation_cross_feedback.started,fixation_cross_feedback.stopped,participant,session,date,expName,psychopyVersion,frameRate,
Training,1,0.2,True,0.3,0,0,0,0,22.48798200004967,None,22.67261840001447,22.722720200021286,23.672604600025807,23.722494000045117,space,1.104076299990993,23.672604600025807,None,24.80900620005559,None,24.80900620005559,24.872322600043844,space,0.9671607000054792,24.80900620005559,None,0.3,True,Training,25.808688800025266,25.872230000037234,25.808688800025266,None,D01,2,2021_Apr_23_0943,subsecond_timing,2021.1.2,59.80764665125996,
Training,0.75,0.2,True,0.3,0,1,1,1,26.322163500008173,None,26.50529960001586,26.555435400048736,27.25534760003211,27.304672199999914,space,0.7487488000188023,27.25534760003211,None,28.023946900037117,None,28.023946900037117,28.088255500013474,space,0.7477007000125013,28.023946900037117,None,0.3,True,Training,28.79049370001303,28.854855700046755,28.79049370001303,None,D01,2,2021_Apr_23_0943,subsecond_timing,2021.1.2,59.80764665125996,
Training,0.5,0.2,True,0.3,0,2,2,2,29.304735100013204,None,29.488114800013136,29.538115400006063,29.988081600051373,30.03803080000216,space,0.7495201999554411,29.988081600051373,None,30.757504200038966,None,30.757504200038966,30.80630660004681,space,0.7741099999984726,30.757504200038966,None,0.3,False,Training,31.556699300010223,31.621110300009605,31.556699300010223,None,D01,2,2021_Apr_23_0943,subsecond_timing,2021.1.2,59.80764665125996,
Training,0.5,0.3,True,0.3,0,3,3,3,32.07111710001482,None,32.35347400000319,32.404240900010336,32.8542248000158,32.90419850003673,space,0.7354554000194184,32.8542248000158,None,33.62226240005111,None,33.62226240005111,33.67116360005457,space,0.627340400009416,33.62226240005111,None,0.3,True,Training,34.2727475000429,34.33717970002908,34.2727475000429,None,D01,2,2021_Apr_23_0943,subsecond_timing,2021.1.2,59.80764665125996,
Training,0.75,0.3,True,0.3,0,4,4,4,34.78636980004376,None,35.07056790002389,35.120619200053625,35.82015740004135,35.87112340005115,space,0.751465699984692,35.82015740004135,None,36.58997030003229,None,36.58997030003229,36.653571200033184,space,0.7291378000518307,36.58997030003229,None,0.3,True,Training,37.33909050002694,37.40294750005705,37.33909050002694,None,D01,2,2021_Apr_23_0943,subsecond_timing,2021.1.2,59.80764665125996,
Training,1,0.3,True,0.3,0,5,5,5,37.8532688000123,None,38.13585310004419,38.18585690000327,39.13652130000992,39.18629610002972,space,0.6812823000364006,39.13652130000992,None,39.83927100000437,None,39.83927100000437,39.902825300057884,space,0.7379760000039823,39.83927100000437,None,0.3,True,Training,40.6053738000337,40.669324700022116,40.6053738000337,None,D01,2,2021_Apr_23_0943,subsecond_timing,2021.1.2,59.80764665125996,
ms_large,1.165,0.2,False,None,0,6,6,6,41.11943210003665,None,41.30260720005026,41.352565600012895,42.46846370003186,42.51901320001343,space,0.8196742000291124,42.46846370003186,None,43.32200470002135,None,43.32200470002135,43.3708459000336,space,0.8471376999514177,43.32200470002135,None,None,None,ms_large,44.18763510003919,44.25220550002996,44.18763510003919,None,D01,2,2021_Apr_23_0943,subsecond_timing,2021.1.2,59.80764665125996,
ms_large,1.094,0.3,False,None,0,7,7,7,44.702192900003865,None,44.98445140005788,45.035377000051085,46.06797070003813,46.118024400027934,space,0.8396424000384286,46.06797070003813,None,46.938220700016245,None,46.938220700016245,47.00157940003555,space,0.8905100999982096,46.938220700016245,None,None,None,ms_large,47.853891400038265,47.91810620005708,47.853891400038265,None,D01,2,2021_Apr_23_0943,subsecond_timing,2021.1.2,59.80764665125996,
ms_large,1.2,0.3,False,None,0,8,8,8,48.3676972000394,None,48.65139920002548,48.701340300031006,49.85105830000248,49.901171100034844,space,0.9099477999843657,49.85105830000248,None,50.78754410002148,None,50.78754410002148,50.8509620000259,space,1.1791033999761567,50.78754410002148,None,None,None,ms_large,51.98622090002755,52.05095240002265,51.98622090002755,None,D01,2,2021_Apr_23_0943,subsecond_timing,2021.1.2,59.80764665125996,
ms_large,1.024,0.1,False,None,0,9,9,9,52.50066880002851,None,52.58401130000129,52.63400470005581,53.600394100009,53.650506900041364,space,0.9452467000228353,53.600394100009,None,54.57015700003831,None,54.57015700003831,54.63360710005509,space,1.054935700027272,54.57015700003831,None,None,None,ms_large,55.65249940002104,55.716775400040206,55.65249940002104,None,D01,2,2021_Apr_23_0943,subsecond_timing,2021.1.2,59.80764665125996,
ms_large,0.953,0.3,False,None,0,10,10,10,56.16676120000193,None,56.449921200051904,56.49992870003916,57.399178600055166,57.44982610002626,space,0.9744949999731034,57.399178600055166,None,58.40237890003482,None,58.40237890003482,58.46672760002548,space,0.9050123000051826,58.40237890003482,None,None,None,ms_large,59.335602000006475,59.39938900002744,59.335602000006475,None,D01,2,2021_Apr_23_0943,subsecond_timing,2021.1.2,59.80764665125996,
ms_large,0.847,0.1,False,None,0,11,11,11,59.84935900004348,None,59.93279710004572,59.98259710002458,60.76511840004241,60.815268800011836,space,0.7229137999820523,60.76511840004241,None,61.51880480005639,None,61.51880480005639,61.58251590002328,space,0.5345530000049621,61.51880480005639,None,None,None,ms_large,62.084384500049055,62.14882330002729,62.084384500049055,None,D01,2,2021_Apr_23_0943,subsecond_timing,2021.1.2,59.80764665125996,
ms_large,0.882,0.3,False,None,0,12,12,12,62.59872330003418,None,62.88208950002445,62.93204500002321,63.76525390002644,63.81537330005085,space,0.8022534999763593,63.76525390002644,None,64.59916730003897,None,64.59916730003897,64.64779770001769,space,0.9661677000112832,64.59916730003897,None,None,None,ms_large,65.58419400005369,65.64819220005302,65.58419400005369,None,D01,2,2021_Apr_23_0943,subsecond_timing,2021.1.2,59.80764665125996,
ms_large,1.129,0.1,False,None,0,13,13,13,66.0975150000304,None,66.18045780004468,66.23050210002111,67.29794720001519,67.34798040002352,space,1.0026112999767065,67.29794720001519,None,68.33393090002937,None,68.33393090002937,68.39778120000847,space,1.11494770005811,68.33393090002937,None,None,None,ms_large,69.46647280000616,69.53111930005252,69.46647280000616,None,D01,2,2021_Apr_23_0943,subsecond_timing,2021.1.2,59.80764665125996,
ms_large,1.059,0.3,False,None,0,14,14,14,69.98082280001836,None,70.26420390000567,70.314195700048,71.313822600001,71.36383300001035,space,0.9773095000418834,71.313822600001,None,72.31694410002092,None,72.31694410002092,72.38242920004996,space,0.8412056999513879,72.31694410002092,None,None,None,ms_large,73.19415690004826,73.24627840000903,73.19415690004826,None,D01,2,2021_Apr_23_0943,subsecond_timing,2021.1.2,59.80764665125996,
ms_large,0.918,0.3,False,None,0,15,15,15,73.69676700001583,None,73.98027250001905,74.03004860004876,74.8965845000348,74.94661120005185,space,0.9416930999723263,74.8965845000348,None,75.86623990000226,None,75.86623990000226,75.91563230002066,space,0.7465441999956965,75.86623990000226,None,None,None,ms_large,76.63105800002813,76.69635600002948,76.63105800002813,None,D01,2,2021_Apr_23_0943,subsecond_timing,2021.1.2,59.80764665125996,
ms_large,0.988,0.1,False,None,0,16,16,16,77.14615620003315,None,77.22952950000763,77.27943830000004,78.21266260003904,78.26266790000955,space,0.8535812000045553,78.21266260003904,None,79.09903250000207,None,79.09903250000207,79.16261750005651,space,0.8419668999849819,79.09903250000207,None,None,None,ms_large,79.963976500032,80.0282894000411,79.963976500032,None,D01,2,2021_Apr_23_0943,subsecond_timing,2021.1.2,59.80764665125996,
ms_large,0.953,0.2,False,None,0,17,17,17,80.47906270000385,None,80.66242630005581,80.71222870005295,81.61209930002224,81.66216020000866,space,0.9487650999799371,81.61209930002224,None,82.58152460004203,None,82.58152460004203,82.6452218000195,space,0.9273972000228241,82.58152460004203,None,None,None,ms_large,83.53051870001946,83.59506440005498,83.53051870001946,None,D01,2,2021_Apr_23_0943,subsecond_timing,2021.1.2,59.80764665125996,
ms_large,1.129,0.3,False,None,0,18,18,18,84.04503980005393,None,84.3282735000248,84.37818790000165,85.44464000000153,85.49477740004659,space,0.9670478000189178,85.44464000000153,None,86.43086870003026,None,86.43086870003026,86.49453330005053,space,0.9801290000323206,86.43086870003026,None,None,None,ms_large,87.4305136000039,87.49430660001235,87.4305136000039,None,D01,2,2021_Apr_23_0943,subsecond_timing,2021.1.2,59.80764665125996,
ms_large,0.988,0.2,False,None,0,19,19,19,87.94396470003994,None,88.12766250001732,88.17778780002845,89.11043040000368,89.16079960000934,space,0.9275996999931522,89.11043040000368,None,90.06361550005386,None,90.06361550005386,90.12737420003396,space,0.8741042999899946,90.06361550005386,None,None,None,ms_large,90.9625949000474,91.02701600000728,90.9625949000474,None,D01,2,2021_Apr_23_0943,subsecond_timing,2021.1.2,59.80764665125996,
ms_large,1.024,0.1,False,None,0,20,20,20,91.47695090004709,None,91.56025410001166,91.6102917000535,92.57683350000298,92.6268279000069,space,0.9140049000270665,92.57683350000298,None,93.52642700000433,None,93.52642700000433,93.59285090002231,space,0.8559558000415564,93.52642700000433,None,None,None,ms_large,94.41261380002834,94.47637200000463,94.41261380002834,None,D01,2,2021_Apr_23_0943,subsecond_timing,2021.1.2,59.80764665125996,
ms_large,1.165,0.1,False,None,0,21,21,21,94.9270824000123,None,95.00995130004594,95.05980660003843,96.1760811000131,96.22611540002981,space,0.9499424999812618,96.1760811000131,None,97.14532420004252,None,97.14532420004252,97.20952580001904,space,1.0396677000098862,97.14532420004252,None,None,None,ms_large,98.2114454000257,98.27590040001087,98.2114454000257,None,D01,2,2021_Apr_23_0943,subsecond_timing,2021.1.2,59.80764665125996,
ms_large,1.2,0.1,False,None,0,22,22,22,98.72585270000855,None,98.80892030004179,98.85891980002634,100.00866390002193,100.05878700001631,space,1.0587696000002325,100.00866390002193,None,101.094879100041,None,101.094879100041,101.15866800001822,space,0.9204038000316359,101.094879100041,None,None,None,ms_large,102.04372780001722,102.10845890000928,102.04372780001722,None,D01,2,2021_Apr_23_0943,subsecond_timing,2021.1.2,59.80764665125996,
ms_large,0.882,0.2,False,None,0,23,23,23,102.55827660002979,None,102.74165830004495,102.79169850004837,103.62481820001267,103.67478270002175,space,0.9392590000061318,103.62481820001267,None,104.5945003000088,None,104.5945003000088,104.65812910004752,space,0.8492044999729842,104.5945003000088,None,None,None,ms_large,105.47691740002483,105.54107840004144,105.47691740002483,None,D01,2,2021_Apr_23_0943,subsecond_timing,2021.1.2,59.80764665125996,
ms_large,0.847,0.3,False,None,0,24,24,24,105.99044950003736,None,106.27424600004451,106.32432310003787,107.10768460005056,107.15691430005245,space,1.037054599961266,107.10768460005056,None,108.17524010001216,None,108.17524010001216,108.2401102000149,space,0.7784622000181116,108.17524010001216,None,None,None,ms_large,108.97686940000858,109.04057030001422,108.97686940000858,None,D01,2,2021_Apr_23_0943,subsecond_timing,2021.1.2,59.80764665125996,
ms_large,1.094,0.1,False,None,0,25,25,25,109.49039930000436,None,109.57370850001462,109.62372130004223,110.65705830004299,110.70688910002355,space,0.8241467999760062,110.65705830004299,None,111.50969970005099,None,111.50969970005099,111.56012210005429,space,0.8480206999811344,111.50969970005099,None,None,None,ms_large,112.37536140001612,112.43985140003497,112.37536140001612,None,D01,2,2021_Apr_23_0943,subsecond_timing,2021.1.2,59.80764665125996,
ms_large,1.059,0.1,False,None,0,26,26,26,112.88990520004882,None,112.97318060003454,113.02312790002907,114.02291760005755,114.07294060004642,space,0.9240264000254683,114.02291760005755,None,114.9868888000492,None,114.9868888000492,115.0395202000509,space,0.7906324999639764,114.9868888000492,None,None,None,ms_large,115.80828420002945,115.87255450000521,115.80828420002945,None,D01,2,2021_Apr_23_0943,subsecond_timing,2021.1.2,59.80764665125996,
ms_large,0.918,0.3,False,None,0,27,27,27,116.3224770000088,None,116.60584880004171,116.65571380004985,117.5223405000288,117.57232220005244,space,0.7600799999781884,117.5223405000288,None,118.30857660004403,None,118.30857660004403,118.37158080004156,space,0.9604239999898709,118.30857660004403,None,None,None,ms_large,119.29123740002979,119.35527070000535,119.29123740002979,None,D01,2,2021_Apr_23_0943,subsecond_timing,2021.1.2,59.80764665125996,
ms_large,0.988,0.2,False,None,0,28,28,28,119.80520750000142,None,119.98858290002681,120.03844980004942,120.97177330002887,121.02175100002205,space,0.8098698999965563,120.97177330002887,None,121.80657540005632,None,121.80657540005632,121.85524500004249,space,0.8564201999688521,121.80657540005632,None,None,None,ms_large,122.68950200005202,122.75470120005775,122.68950200005202,None,D01,2,2021_Apr_23_0943,subsecond_timing,2021.1.2,59.80764665125996,
ms_large,1.165,0.2,False,None,0,29,29,29,123.20463740004925,None,123.38788220001152,123.43799970002146,124.5543649000465,124.60460550000425,space,0.8885513999848627,124.5543649000465,None,125.47416650003288,None,125.47416650003288,125.52318640000885,space,1.072719700052403,125.47416650003288,None,None,None,ms_large,126.57382760004839,126.637371800025,126.57382760004839,None,D01,2,2021_Apr_23_0943,subsecond_timing,2021.1.2,59.80764665125996,
ms_large,1.129,0.1,False,None,0,30,30,30,127.08723540004576,None,127.17046580003807,127.22050460003084,128.2869790000259,128.33683750004275,space,1.0430663999868557,128.2869790000259,None,129.3566757000517,None,129.3566757000517,129.4205827000551,space,1.1979861999861896,129.3566757000517,None,None,None,ms_large,130.57256100000814,130.63666580000427,130.57256100000814,None,D01,2,2021_Apr_23_0943,subsecond_timing,2021.1.2,59.80764665125996,
ms_large,1.059,0.1,False,None,0,31,31,31,131.08661470003426,None,131.16980550001608,131.21983160002856,132.21964670001762,132.26957970001968,space,0.8345782000105828,132.21964670001762,None,133.07253270002548,None,133.07253270002548,133.12194360001013,space,1.257692200015299,133.07253270002548,None,None,None,ms_large,134.35441400000127,134.4195056000026,134.35441400000127,None,D01,2,2021_Apr_23_0943,subsecond_timing,2021.1.2,59.80764665125996,
ms_large,0.918,0.3,False,None,0,32,32,32,134.86914290004643,None,135.15243710001232,135.20246200001566,136.0690872000414,136.11909030005336,space,0.9186790999956429,136.0690872000414,None,137.0221405000193,None,137.0221405000193,137.085485800053,space,0.97088649997022,137.0221405000193,None,None,None,ms_large,138.0212086000247,138.0853463000385,138.0212086000247,None,D01,2,2021_Apr_23_0943,subsecond_timing,2021.1.2,59.80764665125996,
ms_large,1.2,0.3,False,None,0,33,33,33,138.53532580001047,None,138.81782140000723,138.8683810000075,140.01826140005141,140.06817760004196,space,1.0239581000059843,140.01826140005141,None,141.07040650001727,None,141.07040650001727,141.13470570003847,space,1.340404899965506,141.07040650001727,None,None,None,ms_large,142.43731920002028,142.50104960001772,142.43731920002028,None,D01,2,2021_Apr_23_0943,subsecond_timing,2021.1.2,59.80764665125996,
ms_large,0.847,0.1,False,None,0,34,34,34,142.95115110004554,None,143.0344616000075,143.08430100005353,143.86756660003448,143.91758140001912,space,0.9541382999741472,143.86756660003448,None,144.85351740004262,None,144.85351740004262,144.91759040002944,space,0.7534884000197053,144.85351740004262,None,None,None,ms_large,145.63434490002692,145.683932200016,145.63434490002692,None,D01,2,2021_Apr_23_0943,subsecond_timing,2021.1.2,59.80764665125996,
ms_large,1.024,0.1,False,None,0,35,35,35,146.13423230004264,None,146.21712690003915,146.26713760005077,147.23372600000584,147.28378170001088,space,1.1464318000362255,147.23372600000584,None,148.4032858000137,None,148.4032858000137,148.46680400002515,space,0.6830773999681696,148.4032858000137,None,None,None,ms_large,149.1190167000168,149.18321480002487,149.1190167000168,None,D01,2,2021_Apr_23_0943,subsecond_timing,2021.1.2,59.80764665125996,
ms_large,0.882,0.1,False,None,0,36,36,36,149.6332135000266,None,149.71650290000252,149.7664604000165,150.59964840003522,150.6496817000443,space,0.9628735999576747,150.59964840003522,None,151.58589240000583,None,151.58589240000583,151.6349755000556,space,0.9655251000076532,151.58589240000583,None,None,None,ms_large,152.58488030004082,152.6493482000078,152.58488030004082,None,D01,2,2021_Apr_23_0943,subsecond_timing,2021.1.2,59.80764665125996,
ms_large,1.094,0.2,False,None,0,37,37,37,153.09922340000048,None,153.28253600001335,153.3326395000331,154.36568960000295,154.41567560000112,space,0.9864197000279091,154.36568960000295,None,155.38530280004488,None,155.38530280004488,155.44886530004442,space,0.884849900030531,155.38530280004488,None,None,None,ms_large,156.30092920002062,156.36527330003446,156.30092920002062,None,D01,2,2021_Apr_23_0943,subsecond_timing,2021.1.2,59.80764665125996,
ms_large,0.953,0.1,False,None,0,38,38,38,156.81528510001954,None,156.89836550003383,156.94852040003752,157.8484969000565,157.89839240000583,space,0.9412614000029862,157.8484969000565,None,158.81802550004795,None,158.81802550004795,158.86686160002137,space,0.8917980000260286,158.81802550004795,None,None,None,ms_large,159.73371920001227,159.7980168000213,159.73371920001227,None,D01,2,2021_Apr_23_0943,subsecond_timing,2021.1.2,59.80764665125996,
ms_large,1.165,0.2,False,None,0,39,39,39,160.2482958000037,None,160.4312267000205,160.48118680005427,161.58102100004908,161.63105050002923,space,0.8929838000331074,161.58102100004908,None,162.50144830002682,None,162.50144830002682,162.56372750003356,space,0.8165304999565706,162.50144830002682,None,None,None,ms_large,163.3495111000375,163.41355860000476,163.3495111000375,None,D01,2,2021_Apr_23_0943,subsecond_timing,2021.1.2,59.80764665125996,
ms_large,0.953,0.1,False,None,0,40,40,40,163.86385400005383,None,163.9474951000302,163.99726300005568,164.89723190001678,164.94732730003307,space,1.8867800000007264,164.89723190001678,None,166.8165136000025,None,166.8165136000025,166.88019610004267,space,0.9096808999893256,166.8165136000025,None,None,None,ms_large,167.7485113000148,167.81340910005383,167.7485113000148,None,D01,2,2021_Apr_23_0943,subsecond_timing,2021.1.2,59.80764665125996,
ms_large,0.988,0.1,False,None,0,41,41,41,168.26341450004838,None,168.34650850004982,168.3963206000044,169.32912830001442,169.37946700002067,space,1.0375532999751158,169.32912830001442,None,170.4001071000239,None,170.4001071000239,170.4625235000276,space,0.8119169999845326,170.4001071000239,None,None,None,ms_large,171.23123700002907,171.29591179999989,171.23123700002907,None,D01,2,2021_Apr_23_0943,subsecond_timing,2021.1.2,59.80764665125996,
ms_large,1.094,0.1,False,None,0,42,42,42,171.74597120005637,None,171.82912770000985,171.87916220002808,172.91241140000056,172.9624389000237,space,1.0640260000363924,172.91241140000056,None,173.99860840005567,None,173.99860840005567,174.06224080000538,space,0.7915952000184916,173.99860840005567,None,None,None,ms_large,174.81446900003357,174.87864060001448,174.81446900003357,None,D01,2,2021_Apr_23_0943,subsecond_timing,2021.1.2,59.80764665125996,
ms_large,1.129,0.3,False,None,0,43,43,43,175.3285051000421,None,175.6120482000406,175.66206210001837,176.72862630005693,176.7785119000473,space,0.8799430000362918,176.72862630005693,None,177.631225500023,None,177.631225500023,177.6804422000423,space,1.0342816999764182,177.631225500023,None,None,None,ms_large,178.69688280002447,178.76143450004747,178.69688280002447,None,D01,2,2021_Apr_23_0943,subsecond_timing,2021.1.2,59.80764665125996,
ms_large,0.882,0.2,False,None,0,44,44,44,179.21137340000132,None,179.3946003000019,179.4440802000463,180.27772210002877,180.3277799000498,space,0.9147214000113308,180.27772210002877,None,181.21410650003236,None,181.21410650003236,181.26246640004683,space,0.8184491000138223,181.21410650003236,None,None,None,ms_large,182.0628454000107,182.12742720003007,182.0628454000107,None,D01,2,2021_Apr_23_0943,subsecond_timing,2021.1.2,59.80764665125996,
ms_large,1.2,0.1,False,None,0,45,45,45,182.57762870000442,None,182.6608251000289,182.71066890005022,183.86000910005532,183.91012900002534,space,0.8953285000170581,183.86000910005532,None,184.780140100047,None,184.780140100047,184.82921280001756,space,0.9449414000264369,184.780140100047,None,None,None,ms_large,185.74547970003914,185.81004930002382,185.74547970003914,None,D01,2,2021_Apr_23_0943,subsecond_timing,2021.1.2,59.80764665125996,
ms_large,1.024,0.1,False,None,0,46,46,46,186.25950350001222,None,186.34351520001655,186.39317960001063,187.3592679000576,187.40982470003655,space,0.7719740999746136,187.3592679000576,None,188.1626571000088,None,188.1626571000088,188.2263744000229,space,0.9036260999855585,188.1626571000088,None,None,None,ms_large,189.0950328000472,189.15947440004675,189.0950328000472,None,D01,2,2021_Apr_23_0943,subsecond_timing,2021.1.2,59.80764665125996,
ms_large,0.918,0.2,False,None,0,47,47,47,189.60903700004565,None,189.7926371000358,189.84270480001578,190.70885560003808,190.75836870004423,space,2.371844700013753,190.70885560003808,None,193.1117266000365,None,193.1117266000365,193.17548130004434,space,0.8890269999974407,193.1117266000365,None,None,None,ms_large,194.02658840001095,194.09136270004092,194.02658840001095,None,D01,2,2021_Apr_23_0943,subsecond_timing,2021.1.2,59.80764665125996,
ms_large,0.847,0.1,False,None,0,48,48,48,194.54175890004262,None,194.62522340001306,194.67533560004085,195.45838150003692,195.50832950003678,space,1.2239161999896169,195.45838150003692,None,196.7113701000344,None,196.7113701000344,196.77477080002427,space,0.885415600030683,196.7113701000344,None,None,None,ms_large,197.62685440003406,197.69143720000284,197.62685440003406,None,D01,2,2021_Apr_23_0943,subsecond_timing,2021.1.2,59.80764665125996,
ms_large,1.059,0.3,False,None,0,49,49,49,198.14118910004618,None,198.42440940003144,198.47437980002724,199.47433120000642,199.52426470001228,space,0.802566200029105,199.47433120000642,None,200.31066320004174,None,200.31066320004174,200.37410750001436,space,1.109580799995456,200.31066320004174,None,None,None,ms_large,201.44352040003287,201.50730740005383,201.44352040003287,None,D01,2,2021_Apr_23_0943,subsecond_timing,2021.1.2,59.80764665125996,
ms_large,0.953,0.2,False,None,0,50,50,50,201.9572204000433,None,202.140429400024,202.1904226000188,203.09039240004495,203.14033180003753,space,0.8692419999861158,203.09039240004495,None,203.99316930002533,None,203.99316930002533,204.04225510003744,space,0.6564343000063673,203.99316930002533,None,None,None,ms_large,204.67574590002187,204.74001260002842,204.67574590002187,None,D01,2,2021_Apr_23_0943,subsecond_timing,2021.1.2,59.80764665125996,
ms_large,1.024,0.3,False,None,0,51,51,51,205.19006550003542,None,205.47328620002372,205.5231661000289,206.48963660001755,206.53966080001555,space,0.8512823000201024,206.48963660001755,None,207.3592498000362,None,207.3592498000362,207.4082422000356,space,1.1082988000125624,207.3592498000362,None,None,None,ms_large,208.49159870005678,208.555979100056,208.49159870005678,None,D01,2,2021_Apr_23_0943,subsecond_timing,2021.1.2,59.80764665125996,
ms_large,1.165,0.3,False,None,0,52,52,52,209.00603960000444,None,209.28913930000272,209.3391330000013,210.45576200005598,210.50585710001178,space,1.0746294000418857,210.45576200005598,None,211.5584988000337,None,211.5584988000337,211.60757960000774,space,1.1614378000376746,211.5584988000337,None,None,None,ms_large,212.7412336000125,212.80530100001488,212.7412336000125,None,D01,2,2021_Apr_23_0943,subsecond_timing,2021.1.2,59.80764665125996,
ms_large,0.847,0.3,False,None,0,53,53,53,213.25461400003405,None,213.53834720002487,213.58960770000704,214.37115800002357,214.4215788000147,space,1.4440900999470614,214.37115800002357,None,215.8411208000034,None,215.8411208000034,215.90484610002022,space,0.7120403000153601,215.8411208000034,None,None,None,ms_large,216.57227940001758,216.63748920004582,216.57227940001758,None,D01,2,2021_Apr_23_0943,subsecond_timing,2021.1.2,59.80764665125996,
ms_large,1.2,0.1,False,None,0,54,54,54,217.08786540001165,None,217.17104620003374,217.22117010003421,218.37081910000416,218.42076860001544,space,0.8066057999967597,218.37081910000416,None,219.20707540004514,None,219.20707540004514,219.2699840000132,space,0.8344211999792606,219.20707540004514,None,None,None,ms_large,220.07228690001648,220.13719750003656,220.07228690001648,None,D01,2,2021_Apr_23_0943,subsecond_timing,2021.1.2,59.80764665125996,
ms_large,0.988,0.3,False,None,0,55,55,55,220.58730010001455,None,220.87035530002322,220.92034760001116,221.8535009000334,221.9035864000325,space,0.8962288000038825,221.8535009000334,None,222.77319370000623,None,222.77319370000623,222.83686820004368,space,1.055473799991887,222.77319370000623,None,None,None,ms_large,223.8552222000435,223.9198153000325,223.8552222000435,None,D01,2,2021_Apr_23_0943,subsecond_timing,2021.1.2,59.80764665125996,
ms_large,0.882,0.1,False,None,0,56,56,56,224.3698956000153,None,224.45287980005378,224.50223040004494,225.33625870000105,225.38626920001116,space,0.9923850999912247,225.33625870000105,None,226.35761990002356,None,226.35761990002356,226.41960800002562,space,0.6661569999996573,226.35761990002356,None,None,None,ms_large,227.05501960002584,227.11917370004812,227.05501960002584,None,D01,2,2021_Apr_23_0943,subsecond_timing,2021.1.2,59.80764665125996,
ms_large,1.059,0.1,False,None,0,57,57,57,227.56915050005773,None,227.65256620000582,227.7026518000057,228.70238490001066,228.75236770004267,space,0.9163823000271805,228.70238490001066,None,229.63865060004173,None,229.63865060004173,229.70216370001435,space,0.8637711000046693,229.63865060004173,None,None,None,ms_large,230.52133210003376,230.5853823000216,230.52133210003376,None,D01,2,2021_Apr_23_0943,subsecond_timing,2021.1.2,59.80764665125996,
ms_large,1.094,0.1,False,None,0,58,58,58,231.0353128000279,None,231.11864690005314,231.16855740000028,232.2016619000351,232.25178430002416,space,0.9334165999898687,232.2016619000351,None,233.15461710002273,None,233.15461710002273,233.21840320003685,space,1.0594970000092871,233.15461710002273,None,None,None,ms_large,234.23724420001963,234.30143410002347,234.23724420001963,None,D01,2,2021_Apr_23_0943,subsecond_timing,2021.1.2,59.80764665125996,
ms_large,1.129,0.3,False,None,0,59,59,59,234.7512256000191,None,235.0345977000543,235.08447370002978,236.15096970001468,236.20098310004687,space,0.9896363000152633,236.15096970001468,None,237.17072950000875,None,237.17072950000875,237.234221300052,space,0.9413675999967381,237.17072950000875,None,None,None,ms_large,238.13640690001193,238.20061930001248,238.13640690001193,None,D01,2,2021_Apr_23_0943,subsecond_timing,2021.1.2,59.80764665125996,
ms_large,0.918,0.3,False,None,0,60,60,60,238.65056830004323,None,238.93388600001344,238.9838071000413,239.85038210003404,239.90047890000278,space,0.9199810999562033,239.85038210003404,None,240.8033688000287,None,240.8033688000287,240.8668206000002,space,0.8230459000333212,240.8033688000287,None,None,None,ms_large,241.65231380000478,241.71669760002987,241.65231380000478,None,D01,2,2021_Apr_23_0943,subsecond_timing,2021.1.2,59.80764665125996,
ms_large,1.129,0.1,False,None,0,61,61,61,242.1673817000119,None,242.25023350003175,242.29994180001086,243.36643520003418,243.41629420005484,space,0.9254797999747097,243.36643520003418,None,244.31951010000193,None,244.31951010000193,244.38294070004486,space,0.6831779999774881,244.31951010000193,None,None,None,ms_large,245.03491860005306,245.09941270004492,245.03491860005306,None,D01,2,2021_Apr_23_0943,subsecond_timing,2021.1.2,59.80764665125996,
ms_large,1.165,0.3,False,None,0,62,62,62,245.54934500000672,None,245.83276830002433,245.88280980003765,246.99913780001225,247.0487063000328,space,0.891189799993299,246.99913780001225,None,247.91883350000717,None,247.91883350000717,247.9818416000344,space,1.0370146000059322,247.91883350000717,None,None,None,ms_large,248.9847988000256,249.04869010002585,248.9847988000256,None,D01,2,2021_Apr_23_0943,subsecond_timing,2021.1.2,59.80764665125996,
ms_large,0.953,0.2,False,None,0,63,63,63,249.49863560002996,None,249.68200980004622,249.73199650004972,250.63174880004954,250.68168700003298,space,1.0307312000077218,250.63174880004954,None,251.68476700002793,None,251.68476700002793,251.74832280003466,space,0.9891420000349171,251.68476700002793,None,None,None,ms_large,252.6998591000447,252.76461170002585,252.6998591000447,None,D01,2,2021_Apr_23_0943,subsecond_timing,2021.1.2,59.80764665125996,
ms_large,1.094,0.2,False,None,0,64,64,64,253.21464020002168,None,253.3978598000249,253.44789620005758,254.48103490000358,254.53107780002756,space,0.965353999985382,254.48103490000358,None,255.46728010004153,None,255.46728010004153,255.5310500000487,space,0.8636077999835834,255.46728010004153,None,None,None,ms_large,256.3496120000491,256.4137644000002,256.3496120000491,None,D01,2,2021_Apr_23_0943,subsecond_timing,2021.1.2,59.80764665125996,
ms_large,0.882,0.1,False,None,0,65,65,65,256.8639126000344,None,256.94729840004584,256.9972557000001,257.8305840000394,257.8805878000567,space,0.8289135999511927,257.8305840000394,None,258.6833981000236,None,258.6833981000236,258.73209700000007,space,0.7081665999721736,258.6833981000236,None,None,None,ms_large,259.4155152000021,259.48026790004224,259.4155152000021,None,D01,2,2021_Apr_23_0943,subsecond_timing,2021.1.2,59.80764665125996,
ms_large,0.918,0.2,False,None,0,66,66,66,259.93003690004116,None,260.11346150003374,260.1633658000501,261.029861100018,261.0801206000033,space,0.7092755999765359,261.029861100018,None,261.76615760003915,None,261.76615760003915,261.81534300005296,space,0.780094999994617,261.76615760003915,None,None,None,ms_large,262.564843500033,262.6291688000201,262.564843500033,None,D01,2,2021_Apr_23_0943,subsecond_timing,2021.1.2,59.80764665125996,
ms_large,0.988,0.1,False,None,0,67,67,67,263.07952930004103,None,263.16284870001255,263.21277720003854,264.146027800045,264.1962758000009,space,0.8775768000050448,264.146027800045,None,265.0486149000353,None,265.0486149000353,265.11256240005605,space,0.9755712000187486,265.0486149000353,None,None,None,ms_large,266.04693620000035,266.11219530005474,266.04693620000035,None,D01,2,2021_Apr_23_0943,subsecond_timing,2021.1.2,59.80764665125996,
ms_large,1.024,0.1,False,None,0,68,68,68,266.5623458000482,None,266.6454919000389,266.6955392000382,267.66200910002226,267.7120668000425,space,0.8663103000144474,267.66200910002226,None,268.54831620003097,None,268.54831620003097,268.6119607000146,space,0.9685856000287458,268.54831620003097,None,None,None,ms_large,269.54770620004274,269.6116632000194,269.54770620004274,None,D01,2,2021_Apr_23_0943,subsecond_timing,2021.1.2,59.80764665125996,
ms_large,1.2,0.1,False,None,0,69,69,69,270.0615578000434,None,270.1449620000203,270.19501640001545,271.3447508000536,271.3947819000459,space,0.7081588000291958,271.3447508000536,None,272.0810512000462,None,272.0810512000462,272.1446123000351,space,0.9703332000062801,272.0810512000462,None,None,None,ms_large,273.0799284000532,273.1445983000449,273.0799284000532,None,D01,2,2021_Apr_23_0943,subsecond_timing,2021.1.2,59.80764665125996,
ms_large,1.059,0.1,False,None,0,70,70,70,273.5945591000491,None,273.6775732000242,273.727237300016,274.72739520005416,274.7765784000512,space,0.7920595000032336,274.72739520005416,None,275.54709560004994,None,275.54709560004994,275.6107330000377,space,1.1069841000135057,275.54709560004994,None,None,None,ms_large,276.6795921000303,276.7438716000179,276.6795921000303,None,D01,2,2021_Apr_23_0943,subsecond_timing,2021.1.2,59.80764665125996,
ms_large,0.847,0.1,False,None,0,71,71,71,277.19360090000555,None,277.27697160001844,277.32707440003287,278.11011430004146,278.15983870002674,space,1.3198038999689743,278.11011430004146,None,279.4626495000557,None,279.4626495000557,279.51193570002215,space,0.7915919999941252,279.4626495000557,None,None,None,ms_large,280.2787893000059,280.3433118000394,280.2787893000059,None,D01,2,2021_Apr_23_0943,subsecond_timing,2021.1.2,59.80764665125996,
ms_large,1.094,0.2,False,None,0,72,72,72,280.7929887000355,None,280.97626800002763,281.0259811000433,282.0595053000143,282.1095714000403,space,0.8011613999842666,282.0595053000143,None,282.8790767000173,None,282.8790767000173,282.942671900033,space,0.878313800028991,282.8790767000173,None,None,None,ms_large,283.77843850001227,283.84175530000357,283.77843850001227,None,D01,2,2021_Apr_23_0943,subsecond_timing,2021.1.2,59.80764665125996,
ms_large,0.918,0.3,False,None,0,73,73,73,284.29249960003654,None,284.575644800032,284.62564280000515,285.4922494000057,285.54210060002515,space,0.7739320999826305,285.4922494000057,None,286.2950735000195,None,286.2950735000195,286.3588314000517,space,0.6164276999770664,286.2950735000195,None,None,None,ms_large,286.94462670001667,287.00846210005693,286.94462670001667,None,D01,2,2021_Apr_23_0943,subsecond_timing,2021.1.2,59.80764665125996,
ms_large,0.953,0.2,False,None,0,74,74,74,287.4586004000157,None,287.6417655000114,287.69187080004485,288.59156360005727,288.6415805000579,space,0.9594753000419587,288.59156360005727,None,289.57802780001657,None,289.57802780001657,289.64147250005044,space,0.6379395999829285,289.57802780001657,None,None,None,ms_large,290.24391640000977,290.3079518000013,290.24391640000977,None,D01,2,2021_Apr_23_0943,subsecond_timing,2021.1.2,59.80764665125996,
ms_large,0.882,0.2,False,None,0,75,75,75,290.75787680002395,None,290.9413478000206,290.9912206000299,291.82440440001665,291.87432740000077,space,0.8026883999700658,291.82440440001665,None,292.660361700051,None,292.660361700051,292.7236223000218,space,0.7884721999871545,292.660361700051,None,None,None,ms_large,293.47683140001027,293.54077670001425,293.47683140001027,None,D01,2,2021_Apr_23_0943,subsecond_timing,2021.1.2,59.80764665125996,
ms_large,0.988,0.3,False,None,0,76,76,76,293.99058040004456,None,294.27404150000075,294.3239694000222,295.257102100004,295.30706580000697,space,0.8750488000223413,295.257102100004,None,296.16005600005155,None,296.16005600005155,296.20941530005075,space,0.9242050999891944,296.16005600005155,None,None,None,ms_large,297.109031400003,297.1730113000376,297.109031400003,None,D01,2,2021_Apr_23_0943,subsecond_timing,2021.1.2,59.80764665125996,
ms_large,1.2,0.1,False,None,0,77,77,77,297.62346410000464,None,297.70662960002664,297.7567047000048,298.9064583000145,298.95649060001597,space,1.0146943000145257,298.9064583000145,None,299.94267410004977,None,299.94267410004977,300.0063210000517,space,0.9111001000273973,299.94267410004977,None,None,None,ms_large,300.87536910001654,300.9393848000327,300.87536910001654,None,D01,2,2021_Apr_23_0943,subsecond_timing,2021.1.2,59.80764665125996,
ms_large,1.024,0.2,False,None,0,78,78,78,301.3894072000403,None,301.5726147000096,301.62313080002787,302.58924550004303,302.63900940003805,space,0.8036874000099488,302.58924550004303,None,303.42417990003014,None,303.42417990003014,303.48893700004555,space,0.7716536999796517,303.42417990003014,None,None,None,ms_large,304.2248215000145,304.28882880002493,304.2248215000145,None,D01,2,2021_Apr_23_0943,subsecond_timing,2021.1.2,59.80764665125996,
ms_large,1.129,0.1,False,None,0,79,79,79,304.73869170004036,None,304.82205570000224,304.8720529000275,305.93845220003277,305.9885594000225,space,0.8454868000117131,305.93845220003277,None,306.80813930003205,None,306.80813930003205,306.871880300052,space,1.040034299949184,306.80813930003205,None,None,None,ms_large,307.87422090000473,307.9376959000365,307.87422090000473,None,D01,2,2021_Apr_23_0943,subsecond_timing,2021.1.2,59.80764665125996,
ms_large,1.165,0.3,False,None,0,80,80,80,308.38805470004445,None,308.6714220000431,308.72134670004016,309.8211047000368,309.8711577000213,space,0.9182942999759689,309.8211047000368,None,310.7724600000074,None,310.7724600000074,310.8375799000496,space,0.8924043999868445,310.7724600000074,None,None,None,ms_large,311.689589000016,311.75402360002045,311.689589000016,None,D01,2,2021_Apr_23_0943,subsecond_timing,2021.1.2,59.80764665125996,
ms_large,1.059,0.2,False,None,0,81,81,81,312.20405290002236,None,312.38747460005106,312.43723620002856,313.4371893000207,313.4872968000127,space,0.9143585999845527,313.4371893000207,None,314.37360850005643,None,314.37360850005643,314.4369975000154,space,0.7664551999769174,314.37360850005643,None,None,None,ms_large,315.17242210003315,315.23621000000276,315.17242210003315,None,D01,2,2021_Apr_23_0943,subsecond_timing,2021.1.2,59.80764665125996,
ms_large,0.847,0.1,False,None,0,82,82,82,315.6867138000089,None,315.77017950004665,315.820247900032,316.6031870000297,316.6534001000109,space,0.8561709999921732,316.6031870000297,None,317.4882976000081,None,317.4882976000081,317.53707900003064,space,1.0196210000431165,317.4882976000081,None,None,None,ms_large,318.53821660001995,318.60239600000205,318.53821660001995,None,D01,2,2021_Apr_23_0943,subsecond_timing,2021.1.2,59.80764665125996,
ms_large,1.024,0.1,False,None,0,83,83,83,319.05283130001044,None,319.13620510004694,319.18620780005585,320.15257210005075,320.20267420000164,space,0.8002577000297606,320.15257210005075,None,320.9724245000398,None,320.9724245000398,321.0213294000132,space,0.782783200033009,320.9724245000398,None,None,None,ms_large,321.788035900041,321.8522986000171,321.788035900041,None,D01,2,2021_Apr_23_0943,subsecond_timing,2021.1.2,59.80764665125996,
ms_large,1.059,0.3,False,None,0,84,84,84,322.30217280000215,None,322.5855002000462,322.635543100012,323.6354530000244,323.686048100004,space,0.9915711000212468,323.6354530000244,None,324.65480620000744,None,324.65480620000744,324.7041958000045,space,0.9089044000138529,324.65480620000744,None,None,None,ms_large,325.58750140003394,325.65176950005116,325.58750140003394,None,D01,2,2021_Apr_23_0943,subsecond_timing,2021.1.2,59.80764665125996,
ms_large,0.918,0.1,False,None,0,85,85,85,326.1016285000369,None,326.18482030002633,326.23477230005665,327.1013962000143,327.1514007000369,space,0.8071405999944545,327.1013962000143,None,327.93768740003,None,327.93768740003,328.00122810003813,space,0.7928506000316702,327.93768740003,None,None,None,ms_large,328.7538004000089,328.8174624000094,328.7538004000089,None,D01,2,2021_Apr_23_0943,subsecond_timing,2021.1.2,59.80764665125996,
ms_large,1.165,0.1,False,None,0,86,86,86,329.2676837000181,None,329.3510593000101,329.40118430001894,330.5174056000542,330.56767410004977,space,0.8525251999963075,330.5174056000542,None,331.40388380002696,None,331.40388380002696,331.4672605000087,space,0.8137442000443116,331.40388380002696,None,None,None,ms_large,332.23439790005796,332.2838006000384,332.23439790005796,None,D01,2,2021_Apr_23_0943,subsecond_timing,2021.1.2,59.80764665125996,
ms_large,0.953,0.1,False,None,0,87,87,87,332.73384710005485,None,332.8170228000381,332.8669852000312,333.76690150005743,333.8168776000384,space,0.7334349000011571,333.76690150005743,None,334.5191466000397,None,334.5191466000397,334.5834985000547,space,1.0123046000371687,334.5191466000397,None,None,None,ms_large,335.55315050005447,335.61586660001194,335.55315050005447,None,D01,2,2021_Apr_23_0943,subsecond_timing,2021.1.2,59.80764665125996,
ms_large,0.882,0.1,False,None,0,88,88,88,336.0664277000469,None,336.1497687000083,336.1997202000348,337.0161996000097,337.06615960004274,space,0.8402817000169307,337.0161996000097,None,337.88567550003063,None,337.88567550003063,337.9495494000148,space,0.6831390000297688,337.88567550003063,None,None,None,ms_large,338.6015147000435,338.66614150005626,338.6015147000435,None,D01,2,2021_Apr_23_0943,subsecond_timing,2021.1.2,59.80764665125996,
ms_large,0.847,0.1,False,None,0,89,89,89,339.1158931000391,None,339.1991029000492,339.2491599000059,340.03188760002377,340.0819192000199,space,0.9242595000541769,340.03188760002377,None,340.9853398000123,None,340.9853398000123,341.03437740000663,space,0.7420314999762923,340.9853398000123,None,None,None,ms_large,341.7511531000491,341.81536060001235,341.7511531000491,None,D01,2,2021_Apr_23_0943,subsecond_timing,2021.1.2,59.80764665125996,
ms_large,1.094,0.1,False,None,0,90,90,90,342.2649112000363,None,342.34872340003494,342.3985570000368,343.4312412000145,343.48144920001505,space,0.9008765000035055,343.4312412000145,None,344.35107960004825,None,344.35107960004825,344.40026920003584,space,0.8153230000170879,344.35107960004825,None,None,None,ms_large,345.18408620002447,345.2482484000502,345.18408620002447,None,D01,2,2021_Apr_23_0943,subsecond_timing,2021.1.2,59.80764665125996,
ms_large,1.129,0.2,False,None,0,91,91,91,345.6979205000098,None,345.88140780001413,345.9312670000363,346.99777430004906,347.04780110000866,space,0.9434503000229597,346.99777430004906,None,347.967625600053,None,347.967625600053,348.0310071000131,space,0.9482842999859713,347.967625600053,None,None,None,ms_large,348.9492948000552,349.0137386000133,348.9492948000552,None,D01,2,2021_Apr_23_0943,subsecond_timing,2021.1.2,59.80764665125996,
ms_large,1.2,0.1,False,None,0,92,92,92,349.46419160004007,None,349.54733640002087,349.5972759000142,350.74710730003426,350.79726040002424,space,0.9694104999653064,350.74710730003426,None,351.74979000003077,None,351.74979000003077,351.81360390002374,space,1.1429445000248961,351.74979000003077,None,None,None,ms_large,352.9139860000578,352.9632590000401,352.9139860000578,None,D01,2,2021_Apr_23_0943,subsecond_timing,2021.1.2,59.80764665125996,
ms_large,0.988,0.1,False,None,0,93,93,93,353.4136900000158,None,353.4964348000358,353.54619520000415,354.47991630004253,354.52995760005433,space,0.9191776000079699,354.47991630004253,None,355.4327800000319,None,355.4327800000319,355.4963419000269,space,0.9977495000348426,355.4327800000319,None,None,None,ms_large,356.44870740000624,356.51280970004154,356.44870740000624,None,D01,2,2021_Apr_23_0943,subsecond_timing,2021.1.2,59.80764665125996,
ms_large,1.129,0.3,False,None,0,94,94,94,356.9620552000124,None,357.2459294000291,357.29596180003136,358.36240720003843,358.41248280002037,space,0.8977577000041492,358.36240720003843,None,359.28197970002657,None,359.28197970002657,359.3309185000253,space,1.1000985000282526,359.28197970002657,None,None,None,ms_large,360.4142045000335,360.47873310005525,360.4142045000335,None,D01,2,2021_Apr_23_0943,subsecond_timing,2021.1.2,59.80764665125996,
ms_large,1.165,0.2,False,None,0,95,95,95,360.92879500001436,None,361.1120109000476,361.16201460000593,362.2636145000579,362.32890540000517,space,1.0380558000179008,362.2636145000579,None,363.3312708000303,None,363.3312708000303,363.380921700038,space,1.0396295000100508,363.3312708000303,None,None,None,ms_large,364.3968210000312,364.4614894000115,364.3968210000312,None,D01,2,2021_Apr_23_0943,subsecond_timing,2021.1.2,59.80764665125996,
ms_large,1.024,0.3,False,None,0,96,96,96,364.91121740004746,None,365.194602100004,365.2444571000524,366.21111260005273,366.2611028000247,space,0.9474697000114247,366.21111260005273,None,367.18082600005437,None,367.18082600005437,367.2442716000369,space,0.7725670000072569,367.18082600005437,None,None,None,ms_large,367.9800325000542,368.0439522000379,367.9800325000542,None,D01,2,2021_Apr_23_0943,subsecond_timing,2021.1.2,59.80764665125996,
ms_large,1.094,0.1,False,None,0,97,97,97,368.49419150000904,None,368.5773080000072,368.6273826000397,369.66037730005337,369.71032990003005,space,0.8048488000058569,369.66037730005337,None,370.49672160000773,None,370.49672160000773,370.56044710002607,space,0.998679899959825,370.49672160000773,None,None,None,ms_large,371.51256260002265,371.5759846000001,371.51256260002265,None,D01,2,2021_Apr_23_0943,subsecond_timing,2021.1.2,59.80764665125996,
ms_large,1.059,0.2,False,None,0,98,98,98,372.026682500029,None,372.2099435000564,372.2600133000524,373.2597157000564,373.30978560005315,space,0.9919333000434563,373.2597157000564,None,374.27936320001027,None,374.27936320001027,374.3282011000556,space,0.8125688000000082,374.27936320001027,None,None,None,ms_large,375.1118290000013,375.17601480003214,375.1118290000013,None,D01,2,2021_Apr_23_0943,subsecond_timing,2021.1.2,59.80764665125996,
ms_large,1.2,0.1,False,None,0,99,99,99,375.6259342000121,None,375.7094490000163,375.75945560005493,376.9091234000516,376.95914050005376,space,0.8774792000185698,376.9091234000516,None,377.81198450003285,None,377.81198450003285,377.85992290003924,space,1.257933100045193,377.81198450003285,None,None,None,ms_large,379.0944959000335,379.15881390002323,379.0944959000335,None,D01,2,2021_Apr_23_0943,subsecond_timing,2021.1.2,59.80764665125996,
ms_large,0.882,0.3,False,None,0,100,100,100,379.6088712000055,None,379.8919492000132,379.9419882000075,380.7754597000312,380.82551480003167,space,0.9091213999781758,380.7754597000312,None,381.7103137000231,None,381.7103137000231,381.7606311000418,space,0.6721498999977484,381.7103137000231,None,None,None,ms_large,382.41074830002617,382.47460100002354,382.41074830002617,None,D01,2,2021_Apr_23_0943,subsecond_timing,2021.1.2,59.80764665125996,
ms_large,0.918,0.3,False,None,0,101,101,101,382.9243614000152,None,383.20802230003756,383.25810860004276,384.12373550003394,384.1741906000534,space,0.8655649999855086,384.12373550003394,None,385.01086790004047,None,385.01086790004047,385.0737670000526,space,0.8504858000087552,385.01086790004047,None,None,None,ms_large,385.8929189000046,385.95697550004115,385.8929189000046,None,D01,2,2021_Apr_23_0943,subsecond_timing,2021.1.2,59.80764665125996,
ms_large,0.988,0.3,False,None,0,102,102,102,386.40726300003007,None,386.69064630003413,386.7407001000247,387.6738300000434,387.72387890005484,space,0.8388674999587238,387.6738300000434,None,388.5421889000572,None,388.5421889000572,388.59095250000246,space,1.0418393000145443,388.5421889000572,None,None,None,ms_large,389.62109600001713,389.6732129000011,389.62109600001713,None,D01,2,2021_Apr_23_0943,subsecond_timing,2021.1.2,59.80764665125996,
ms_large,0.847,0.1,False,None,0,103,103,103,390.12335080001503,None,390.20679720002227,390.2567875000532,391.0397921000258,391.08983980002813,space,0.6974810999818146,391.0397921000258,None,391.7595561000053,None,391.7595561000053,391.8230583000113,space,0.545083099976182,391.7595561000053,None,None,None,ms_large,392.325761300046,392.38984950003214,392.325761300046,None,D01,2,2021_Apr_23_0943,subsecond_timing,2021.1.2,59.80764665125996,
ms_large,0.953,0.3,False,None,0,104,104,104,392.8396569000324,None,393.12301230005687,393.1729712000233,394.0726657000487,394.12318600004073,space,0.8962679000105709,394.0726657000487,None,394.9922822000226,None,394.9922822000226,395.04134930000873,space,0.8188372000004165,394.9922822000226,None,None,None,ms_large,395.8413762000273,395.9056979000452,395.8413762000273,None,D01,2,2021_Apr_23_0943,subsecond_timing,2021.1.2,59.80764665125996,
ms_large,0.847,0.3,False,None,0,105,105,105,396.35520580003504,None,396.6388877000427,396.688998000056,397.4720185000333,397.52219470002456,space,0.8684879000065848,397.4720185000333,None,398.3585218000226,None,398.3585218000226,398.42196620005416,space,0.9282081999699585,398.3585218000226,None,None,None,ms_large,399.3073118000175,399.3718081000261,399.3073118000175,None,D01,2,2021_Apr_23_0943,subsecond_timing,2021.1.2,59.80764665125996,
ms_large,1.094,0.3,False,None,0,106,106,106,399.82118560001254,None,400.10494030005066,400.15500950004207,401.1880077000242,401.23819370003184,space,0.8182447999715805,401.1880077000242,None,402.0403473000042,None,402.0403473000042,402.1040916000493,space,1.1016177000128664,402.0403473000042,None,None,None,ms_large,403.1853283000528,403.2375775000546,403.1853283000528,None,D01,2,2021_Apr_23_0943,subsecond_timing,2021.1.2,59.80764665125996,
ms_large,1.129,0.3,False,None,0,107,107,107,403.6878429000499,None,403.9709629000281,404.0209328000201,405.08748300001025,405.13748420000775,space,0.9168916000053287,405.08748300001025,None,406.02354680001736,None,406.02354680001736,406.08722330001183,space,1.0824494999833405,406.02354680001736,None,None,None,ms_large,407.1392351000104,407.20362190000014,407.1392351000104,None,D01,2,2021_Apr_23_0943,subsecond_timing,2021.1.2,59.80764665125996,
ms_large,0.882,0.3,False,None,0,108,108,108,407.6534429000458,None,407.9368635000428,407.98693030001596,408.8197513000341,408.86999580002157,space,0.7622820999822579,408.8197513000341,None,409.6064196000225,None,409.6064196000225,409.6698996000341,space,0.6839555999613367,409.6064196000225,None,None,None,ms_large,410.3219513000222,410.38638380001066,410.3219513000222,None,D01,2,2021_Apr_23_0943,subsecond_timing,2021.1.2,59.80764665125996,
ms_large,0.953,0.2,False,None,0,109,109,109,410.83650090004085,None,411.0194777000579,411.0694768000394,411.9696007000166,412.0198914000066,space,0.8026583999744616,411.9696007000166,None,412.81776750000427,None,412.81776750000427,412.87002690002555,space,0.660203300009016,412.81776750000427,None,None,None,ms_large,413.5045063000289,413.5691210000077,413.5045063000289,None,D01,2,2021_Apr_23_0943,subsecond_timing,2021.1.2,59.80764665125996,
ms_large,0.988,0.1,False,None,0,110,110,110,414.01919300004374,None,414.1023803000571,414.1523688000161,415.08556040003896,415.1355320000439,space,0.775918899977114,415.08556040003896,None,415.8881513000233,None,415.8881513000233,415.9378804000444,space,1.0633046999573708,415.8881513000233,None,None,None,ms_large,416.9709826000035,417.0354282000335,416.9709826000035,None,D01,2,2021_Apr_23_0943,subsecond_timing,2021.1.2,59.80764665125996,
ms_large,1.165,0.3,False,None,0,111,111,111,417.4851768000517,None,417.76803750003455,417.8183842000435,418.9350253000157,418.9850878000143,space,0.8641269999789074,418.9350253000157,None,419.8209907000419,None,419.8209907000419,419.87043570005335,space,1.3174800999695435,419.8209907000419,None,None,None,ms_large,421.1692345000338,421.23446520004654,421.1692345000338,None,D01,2,2021_Apr_23_0943,subsecond_timing,2021.1.2,59.80764665125996,
ms_large,0.918,0.2,False,None,0,112,112,112,421.68433820002247,None,421.8677282000426,421.9176955000148,422.7841747000348,422.8345508000348,space,0.7196907000034116,422.7841747000348,None,423.5371378000127,None,423.5371378000127,423.58625950000715,space,0.8386931999702938,423.5371378000127,None,None,None,ms_large,424.4029000000446,424.466665200016,424.4029000000446,None,D01,2,2021_Apr_23_0943,subsecond_timing,2021.1.2,59.80764665125996,
ms_large,1.059,0.3,False,None,0,113,113,113,424.91728710004827,None,425.20040770003106,425.2504929000279,426.25199360004626,426.31769230001373,space,0.9412838999996893,426.25199360004626,None,427.21990330005065,None,427.21990330005065,427.28339010005584,space,0.863224100030493,427.21990330005065,None,None,None,ms_large,428.10274810000556,428.16655780002475,428.10274810000556,None,D01,2,2021_Apr_23_0943,subsecond_timing,2021.1.2,59.80764665125996,
ms_large,1.2,0.2,False,None,0,114,114,114,428.61650620005094,None,428.79971620003926,428.8497449000133,429.99925110000186,430.04960830003256,space,0.8721573000075296,429.99925110000186,None,430.9023308000178,None,430.9023308000178,430.9515543000307,space,1.0750578999868594,430.9023308000178,None,None,None,ms_large,432.00175970001146,432.0658710000571,432.00175970001146,None,D01,2,2021_Apr_23_0943,subsecond_timing,2021.1.2,59.80764665125996,
ms_large,1.024,0.3,False,None,0,115,115,115,432.5159186000237,None,432.7990551000112,432.84907290001865,433.81568270002026,433.86558920005336,space,0.8819313999847509,433.81568270002026,None,434.71824660000857,None,434.71824660000857,434.76746290002484,space,1.0790341999963857,434.71824660000857,None,None,None,ms_large,435.8178005000227,435.88188950001495,435.8178005000227,None,D01,2,2021_Apr_23_0943,subsecond_timing,2021.1.2,59.80764665125996,
ms_large,1.129,0.3,False,None,0,116,116,116,436.3318315000506,None,436.6151074000518,436.6650289000245,437.7315316000022,437.7815662000212,space,0.9172195999999531,437.7315316000022,None,438.6677416000166,None,438.6677416000166,438.7314406000078,space,1.0211876999819651,438.6677416000166,None,None,None,ms_large,439.7170670000487,439.7811850000289,439.7170670000487,None,D01,2,2021_Apr_23_0943,subsecond_timing,2021.1.2,59.80764665125996,
ms_large,1.2,0.3,False,None,0,117,117,117,440.23086140002124,None,440.5143720000051,440.5643150000251,441.7142197000212,441.76439510000637,space,0.7142031000112183,441.7142197000212,None,442.44974690000527,None,442.44974690000527,442.4985863000038,space,0.6404600000241771,442.44974690000527,None,None,None,ms_large,443.116525200021,443.18062840000493,443.116525200021,None,D01,2,2021_Apr_23_0943,subsecond_timing,2021.1.2,59.80764665125996,
ms_large,1.024,0.3,False,None,0,118,118,118,443.62993480003206,None,443.91370480001206,443.96377120004036,444.9303944000276,444.9802481000079,space,0.9813622999936342,444.9303944000276,None,445.93268370005535,None,445.93268370005535,445.99676270002965,space,0.7502982000005431,445.93268370005535,None,None,None,ms_large,446.7154168000561,446.7799259000458,446.7154168000561,None,D01,2,2021_Apr_23_0943,subsecond_timing,2021.1.2,59.80764665125996,
ms_large,1.094,0.1,False,None,0,119,119,119,447.22985719999997,None,447.3128322000266,447.36315820005257,448.39631790004205,448.4462295000558,space,0.8943557000020519,448.39631790004205,None,449.3159030000097,None,449.3159030000097,449.36510410002666,space,0.8261210999917239,449.3159030000097,None,None,None,ms_large,450.1653321000049,450.229270300013,450.1653321000049,None,D01,2,2021_Apr_23_0943,subsecond_timing,2021.1.2,59.80764665125996,
ms_large,1.059,0.1,False,None,0,120,120,120,450.6792016000254,None,450.7625482000294,450.8126219000551,451.8123411000124,451.8623496000073,space,0.9038592000142671,451.8123411000124,None,452.7485664000269,None,452.7485664000269,452.81231490004575,space,1.0248677000054158,452.7485664000269,None,None,None,ms_large,453.79682930000126,453.8621436000103,453.79682930000126,None,D01,2,2021_Apr_23_0943,subsecond_timing,2021.1.2,59.80764665125996,
ms_large,0.988,0.2,False,None,0,121,121,121,454.3118358000065,None,454.49525350000476,454.5451374000404,455.47842930001207,455.5286108000437,space,0.8777526000048965,455.47842930001207,None,456.38125070004025,None,456.38125070004025,456.4302622000105,space,0.9264466000022367,456.38125070004025,None,None,None,ms_large,457.3304654000094,457.3947493000305,457.3304654000094,None,D01,2,2021_Apr_23_0943,subsecond_timing,2021.1.2,59.80764665125996,
ms_large,0.847,0.3,False,None,0,122,122,122,457.8447135000024,None,458.12779340002453,458.17782270000316,458.9610925000161,459.011101400014,space,0.9333029999979772,458.9610925000161,None,459.9140305000474,None,459.9140305000474,459.9775695000426,space,0.8593039000406861,459.9140305000474,None,None,None,ms_large,460.7965281000361,460.86072410002816,460.7965281000361,None,D01,2,2021_Apr_23_0943,subsecond_timing,2021.1.2,59.80764665125996,
ms_large,0.953,0.2,False,None,0,123,123,123,461.31074470002204,None,461.4939719000249,461.5440831000451,462.44396180001786,462.4937844000524,space,0.883836799999699,462.44396180001786,None,463.34676100005163,None,463.34676100005163,463.3954694000422,space,0.9145715000340715,463.34676100005163,None,None,None,ms_large,464.27918630000204,464.3434092000243,464.27918630000204,None,D01,2,2021_Apr_23_0943,subsecond_timing,2021.1.2,59.80764665125996,
ms_large,0.918,0.2,False,None,0,124,124,124,464.7932733000489,None,464.97669100004714,465.02671310002916,465.89384500001324,465.94369300000835,space,0.9584231000044383,465.89384500001324,None,466.87956740002846,None,466.87956740002846,466.94302600005176,space,0.9768110000295565,466.87956740002846,None,None,None,ms_large,467.87866420001956,467.942865500052,467.87866420001956,None,D01,2,2021_Apr_23_0943,subsecond_timing,2021.1.2,59.80764665125996,
ms_large,1.165,0.2,False,None,0,125,125,125,468.39287840004545,None,468.5761056000483,468.62584880000213,469.7425096000079,469.792378800048,space,0.9354946999810636,469.7425096000079,None,470.7114030000521,None,470.7114030000521,470.7750251000398,space,1.0168101000017487,470.7114030000521,None,None,None,ms_large,471.7609985000454,471.8256298000342,471.7609985000454,None,D01,2,2021_Apr_23_0943,subsecond_timing,2021.1.2,59.80764665125996,
ms_large,0.882,0.3,False,None,0,126,126,126,472.2754354000208,None,472.55854990001535,472.6085696000373,473.44185810000636,473.49176720000105,space,0.9820886999950744,473.44185810000636,None,474.44455740001285,None,474.44455740001285,474.50827890000073,space,0.7794709999579936,474.44455740001285,None,None,None,ms_large,475.2431109000463,475.30827620002674,475.2431109000463,None,D01,2,2021_Apr_23_0943,subsecond_timing,2021.1.2,59.80764665125996,
ms_large,0.882,0.2,False,None,0,127,127,127,475.7580267000012,None,475.9413654000382,475.99136490002275,476.82460460002767,476.8742282000021,space,1.0532546999747865,476.82460460002767,None,477.9109501000494,None,477.9109501000494,477.97434430004796,space,0.8488805000088178,477.9109501000494,None,None,None,ms_large,478.7931312000146,478.85753220005427,478.7931312000146,None,D01,2,2021_Apr_23_0943,subsecond_timing,2021.1.2,59.80764665125996,
ms_large,1.094,0.2,False,None,0,128,128,128,479.30734270001994,None,479.4908755000215,479.540712200047,480.5738121000468,480.6237209000392,space,0.9490006000269204,480.5738121000468,None,481.54330000001937,None,481.54330000001937,481.591498600028,space,0.7678782999864779,481.54330000001937,None,None,None,ms_large,482.34232140000677,482.4070896000485,482.34232140000677,None,D01,2,2021_Apr_23_0943,subsecond_timing,2021.1.2,59.80764665125996,
ms_large,1.024,0.3,False,None,0,129,129,129,482.8567376000574,None,483.1395865000086,483.18997740000486,484.1560407000361,484.2064184000483,space,0.9361462999950163,484.1560407000361,None,485.12565990001895,None,485.12565990001895,485.18991590000223,space,0.7765905999694951,485.12565990001895,None,None,None,ms_large,485.92542310000863,485.9895932000363,485.92542310000863,None,D01,2,2021_Apr_23_0943,subsecond_timing,2021.1.2,59.80764665125996,
ms_large,0.847,0.1,False,None,0,130,130,130,486.4388074000017,None,486.52286840003217,486.5728191000526,487.3559513000073,487.4060560000362,space,1.8282344000181183,487.3559513000073,None,489.2089021000429,None,489.2089021000429,489.27219210000476,space,0.8477842999855056,489.2089021000429,None,None,None,ms_large,490.0745636000065,490.138765300042,490.0745636000065,None,D01,2,2021_Apr_23_0943,subsecond_timing,2021.1.2,59.80764665125996,
ms_large,1.2,0.1,False,None,0,131,131,131,490.58866020001005,None,490.6720708000357,490.7219776000129,491.8717015000293,491.92175530001987,space,0.8883075999910943,491.8717015000293,None,492.79146210005274,None,492.79146210005274,492.84059500001604,space,0.8339797999942675,492.79146210005274,None,None,None,ms_large,493.6569690000033,493.72140150005,493.6569690000033,None,D01,2,2021_Apr_23_0943,subsecond_timing,2021.1.2,59.80764665125996,
ms_large,1.059,0.3,False,None,0,132,132,132,494.17150200001197,None,494.4546249000123,494.50465410004836,495.5045308000408,495.5544159000274,space,0.8503309999941848,495.5045308000408,None,496.37424160004593,None,496.37424160004593,496.4230722000357,space,0.8644123999984004,496.37424160004593,None,None,None,ms_large,497.257090100029,497.32093820004957,497.257090100029,None,D01,2,2021_Apr_23_0943,subsecond_timing,2021.1.2,59.80764665125996,
ms_large,0.918,0.1,False,None,0,133,133,133,497.7708432000363,None,497.8540023000096,497.9040203000186,498.7699537000153,498.8200784000219,space,0.8569504999904893,498.7699537000153,None,499.6570378000033,None,499.6570378000033,499.7204354000278,space,1.324792500003241,499.6570378000033,None,None,None,ms_large,501.00493430002825,501.06938220001757,501.00493430002825,None,D01,2,2021_Apr_23_0943,subsecond_timing,2021.1.2,59.80764665125996,
ms_large,1.129,0.3,False,None,0,134,134,134,501.52002760005416,None,501.80338310002116,501.85341620002873,502.91992430004757,502.97009530005744,space,0.9825338000082411,502.91992430004757,None,503.92269560002023,None,503.92269560002023,503.98646800004644,space,0.7252637000055984,503.92269560002023,None,None,None,ms_large,504.6721479000407,504.73616030003177,504.6721479000407,None,D01,2,2021_Apr_23_0943,subsecond_timing,2021.1.2,59.80764665125996,
ms_large,1.165,0.2,False,None,0,135,135,135,505.18609730002936,None,505.3692943000351,505.41969670000253,506.51926780003123,506.56970360002015,space,0.8663026000140235,506.51926780003123,None,507.40503770002397,None,507.40503770002397,507.45431910001207,space,1.0390069999848492,507.40503770002397,None,None,None,ms_large,508.4711109000491,508.53567250003107,508.4711109000491,None,D01,2,2021_Apr_23_0943,subsecond_timing,2021.1.2,59.80764665125996,
ms_large,0.953,0.1,False,None,0,136,136,136,508.98548710002797,None,509.06878330005566,509.1187825000379,510.0178764000302,510.0686196000315,space,0.9418632999877445,510.0178764000302,None,510.98825600004056,None,510.98825600004056,511.0513536000508,space,0.8584762000245973,510.98825600004056,None,None,None,ms_large,511.87023670005146,511.9350062000449,511.87023670005146,None,D01,2,2021_Apr_23_0943,subsecond_timing,2021.1.2,59.80764665125996,
ms_large,0.988,0.3,False,None,0,137,137,137,512.3848539000028,None,512.6683164000278,512.7181318000075,513.651287100045,513.701279400033,space,1.0687484000227414,513.651287100045,None,514.7541709000361,None,514.7541709000361,514.8177060000016,space,0.9628235000418499,514.7541709000361,None,None,None,ms_large,515.736784400011,515.8011099000578,515.736784400011,None,D01,2,2021_Apr_23_0943,subsecond_timing,2021.1.2,59.80764665125996,
ms_large,0.847,0.1,False,None,0,138,138,138,516.2507155000349,None,516.3341309000389,516.3841952000512,517.1672577000572,517.2172356000519,space,0.814906100044027,517.1672577000572,None,518.0036819000379,None,518.0036819000379,518.0670989000355,space,0.8731740000075661,518.0036819000379,None,None,None,ms_large,518.9023828000063,518.9675163000356,518.9023828000063,None,D01,2,2021_Apr_23_0943,subsecond_timing,2021.1.2,59.80764665125996,
ms_large,0.882,0.1,False,None,0,139,139,139,519.4168245000183,None,519.5001432000427,519.5501657000277,520.3673343000119,520.4214319000021,space,0.7637054999941029,520.3673343000119,None,521.153267900052,None,521.153267900052,521.2083904000465,space,0.9190807999693789,521.153267900052,None,None,None,ms_large,522.1022407000419,522.1663588000229,522.1022407000419,None,D01,2,2021_Apr_23_0943,subsecond_timing,2021.1.2,59.80764665125996,
ms_large,0.988,0.3,False,None,0,140,140,140,522.6162666000309,None,522.8995338000241,522.949542300019,523.8827197000501,523.9332399000414,space,0.8625997000490315,523.8827197000501,None,524.7687443000032,None,524.7687443000032,524.8316174000502,space,0.8287324999691918,524.7687443000032,None,None,None,ms_large,525.6182454000227,525.6823755000369,525.6182454000227,None,D01,2,2021_Apr_23_0943,subsecond_timing,2021.1.2,59.80764665125996,
ms_large,0.953,0.1,False,None,0,141,141,141,526.1323203000356,None,526.215784,526.2657266000169,527.1654285000404,527.2154173000017,space,0.8324707999709062,527.1654285000404,None,528.0185473000165,None,528.0185473000165,528.0812057000003,space,0.8704572999849916,528.0185473000165,None,None,None,ms_large,528.9175444000284,528.981936300057,528.9175444000284,None,D01,2,2021_Apr_23_0943,subsecond_timing,2021.1.2,59.80764665125996,
ms_large,1.165,0.2,False,None,0,142,142,142,529.4316850000178,None,529.6151289000409,529.6650760000339,530.7649620000157,530.8149204000365,space,1.5246999000082724,530.7649620000157,None,532.3175431000418,None,532.3175431000418,532.3812900000485,space,0.9497924000024796,532.3175431000418,None,None,None,ms_large,533.2999735000194,533.364307300013,533.2999735000194,None,D01,2,2021_Apr_23_0943,subsecond_timing,2021.1.2,59.80764665125996,
ms_large,1.059,0.3,False,None,0,143,143,143,533.8143320000381,None,534.0975965000107,534.1475463000243,535.1473721000366,535.1975240000174,space,0.8347262000315823,535.1473721000366,None,536.0150529000093,None,536.0150529000093,536.0806705000577,space,0.9759331000386737,536.0150529000093,None,None,None,ms_large,537.0161423000391,537.0803551000427,537.0161423000391,None,D01,2,2021_Apr_23_0943,subsecond_timing,2021.1.2,59.80764665125996,
ms_large,1.2,0.1,False,None,0,144,144,144,537.5298985000118,None,537.6136610000394,537.6635096000391,538.8134858000558,538.8635183000006,space,0.9852792000165209,538.8134858000558,None,539.8329323000507,None,539.8329323000507,539.896489900013,space,0.8734341000090353,539.8329323000507,None,None,None,ms_large,540.7321181000443,540.7964714000118,540.7321181000443,None,D01,2,2021_Apr_23_0943,subsecond_timing,2021.1.2,59.80764665125996,
ms_large,1.094,0.2,False,None,0,145,145,145,541.2463312000036,None,541.4294963000575,541.4795586000546,542.512611400045,542.5628707000287,space,0.9209460000274703,542.512611400045,None,543.4656022000127,None,543.4656022000127,543.5147674000473,space,0.9407345000072382,543.4656022000127,None,None,None,ms_large,544.4313714000164,544.4957241000375,544.4313714000164,None,D01,2,2021_Apr_23_0943,subsecond_timing,2021.1.2,59.80764665125996,
ms_large,1.024,0.3,False,None,0,146,146,146,544.9459428000264,None,545.2288980000303,545.278892100032,546.245541500044,546.295486100018,space,0.9200326999998651,546.245541500044,None,547.1982562000048,None,547.1982562000048,547.2472963000182,space,0.9117492000223137,547.1982562000048,None,None,None,ms_large,548.1308586000232,548.1950124000432,548.1308586000232,None,D01,2,2021_Apr_23_0943,subsecond_timing,2021.1.2,59.80764665125996,
ms_large,0.918,0.2,False,None,0,147,147,147,548.6450966000557,None,548.8282073000446,548.8783000000403,549.7447165000485,549.7947033000528,space,0.9535207000444643,549.7447165000485,None,550.7305127000436,None,550.7305127000436,550.7790146000334,space,0.9178264999645762,550.7305127000436,None,None,None,ms_large,551.6796480000485,551.7443552000332,551.6796480000485,None,D01,2,2021_Apr_23_0943,subsecond_timing,2021.1.2,59.80764665125996,
ms_large,1.129,0.3,False,None,0,148,148,148,552.1943260000553,None,552.477599600039,552.5276243000408,553.5941303000436,553.6440792000503,space,0.9195741000003181,553.5941303000436,None,554.5462490000064,None,554.5462490000064,554.6106799000409,space,1.013907000015024,554.5462490000064,None,None,None,ms_large,555.5796112000244,555.6437957000453,555.5796112000244,None,D01,2,2021_Apr_23_0943,subsecond_timing,2021.1.2,59.80764665125996,
ms_large,1.165,0.3,False,None,0,149,149,149,556.0936090000323,None,556.3769243000424,556.4268261000398,557.5433319000294,557.5933626000187,space,1.1510710999718867,557.5433319000294,None,558.7129337000079,None,558.7129337000079,558.7766852000495,space,0.860654899966903,558.7129337000079,None,None,None,ms_large,559.5958057000535,559.6605419000261,559.5958057000535,None,D01,2,2021_Apr_23_0943,subsecond_timing,2021.1.2,59.80764665125996,
ms_large,0.882,0.1,False,None,0,150,150,150,560.1095531000174,None,560.1928575000493,560.2429318000213,561.0762721000356,561.1264823000529,space,0.8506994000053965,561.0762721000356,None,561.9453666000045,None,561.9453666000045,562.00879360002,space,0.6216506999917328,561.9453666000045,None,None,None,ms_large,562.5949384000269,562.6592515000375,562.5949384000269,None,D01,2,2021_Apr_23_0943,subsecond_timing,2021.1.2,59.80764665125996,
ms_large,1.2,0.2,False,None,0,151,151,151,563.1084904000163,None,563.2922801000532,563.3422025000327,564.4921113000019,564.5420827000053,space,0.9015309000387788,564.4921113000019,None,565.4271833000239,None,565.4271833000239,565.4773404000443,space,1.1977401999756694,565.4271833000239,None,None,None,ms_large,566.6443418000126,566.7084074000013,566.6443418000126,None,D01,2,2021_Apr_23_0943,subsecond_timing,2021.1.2,59.80764665125996,
ms_large,0.953,0.3,False,None,0,152,152,152,567.1583292000578,None,567.441561900021,567.4915276000393,568.3913878000458,568.4416988000157,space,1.0859545999555849,568.3913878000458,None,569.5111522000516,None,569.5111522000516,569.5745435000281,space,1.0764910000143573,569.5111522000516,None,None,None,ms_large,570.6101313000545,570.6743332000333,570.6101313000545,None,D01,2,2021_Apr_23_0943,subsecond_timing,2021.1.2,59.80764665125996,
ms_large,1.059,0.3,False,None,0,153,153,153,571.1242595000076,None,571.4078526000376,571.4575318000279,572.4574218000052,572.5073330000159,space,0.7957089000265114,572.4574218000052,None,573.2762893000036,None,573.2762893000036,573.3237542000134,space,0.9168847000109963,573.2762893000036,None,None,None,ms_large,574.225865400047,574.2904921000008,574.225865400047,None,D01,2,2021_Apr_23_0943,subsecond_timing,2021.1.2,59.80764665125996,
ms_large,0.918,0.2,False,None,0,154,154,154,574.740190600045,None,574.923766700027,574.9736221000203,575.840188800008,575.8902013000334,space,1.0213166000321507,575.840188800008,None,576.893155800004,None,576.893155800004,576.9566836000304,space,1.020769199996721,576.893155800004,None,None,None,ms_large,577.9403504000511,577.9897229000344,577.9403504000511,None,D01,2,2021_Apr_23_0943,subsecond_timing,2021.1.2,59.80764665125996,
ms_large,0.847,0.2,False,None,0,155,155,155,578.43989530002,None,578.6228491000365,578.6729644000297,579.4727797000087,579.5229416000075,space,0.8689169000135735,579.4727797000087,None,580.3758073000354,None,580.3758073000354,580.4398670000373,space,0.9313360000378452,580.3758073000354,None,None,None,ms_large,581.3249496000353,581.3892265000031,581.3249496000353,None,D01,2,2021_Apr_23_0943,subsecond_timing,2021.1.2,59.80764665125996,
ms_large,1.129,0.3,False,None,0,156,156,156,581.8392257000087,None,582.1225072000525,582.1723325000494,583.2388558000093,583.2888587000198,space,1.0125251000281423,583.2388558000093,None,584.2749729000498,None,584.2749729000498,584.3385610000114,space,0.9509280999773182,584.2749729000498,None,None,None,ms_large,585.2570339000085,585.32174330001,585.2570339000085,None,D01,2,2021_Apr_23_0943,subsecond_timing,2021.1.2,59.80764665125996,
ms_large,1.024,0.1,False,None,0,157,157,157,585.7717745000264,None,585.8550488000037,585.904963100038,586.871249400021,586.9213790000067,space,1.022497400001157,586.871249400021,None,587.923895600019,None,587.923895600019,587.9719921000069,space,0.9878141999943182,587.923895600019,None,None,None,ms_large,588.9399670000421,589.0043375000241,588.9399670000421,None,D01,2,2021_Apr_23_0943,subsecond_timing,2021.1.2,59.80764665125996,
ms_large,0.988,0.2,False,None,0,158,158,158,589.4542443000246,None,589.6377398000332,589.6875565000228,590.6207019000431,590.6706848000176,space,0.8258426999673247,590.6207019000431,None,591.4738091000472,None,591.4738091000472,591.5372788000386,space,0.7330648000352085,591.4738091000472,None,None,None,ms_large,592.2392218000023,592.3038280000328,592.2392218000023,None,D01,2,2021_Apr_23_0943,subsecond_timing,2021.1.2,59.80764665125996,
ms_large,1.094,0.2,False,None,0,159,159,159,592.753699700057,None,592.9371318000485,592.9871837000246,594.0203190000029,594.0703122000559,space,0.8409124999889173,594.0203190000029,None,594.8984158000094,None,594.8984158000094,594.9526700000279,space,1.1744432999985293,594.8984158000094,None,None,None,ms_large,596.1054277000367,596.1697439000127,596.1054277000367,None,D01,2,2021_Apr_23_0943,subsecond_timing,2021.1.2,59.80764665125996,
ms_large,1.129,0.2,False,None,0,160,160,160,596.6197692000424,None,596.8030118000461,596.8529868000187,597.9196974000079,597.9702037000097,space,0.8796557000023313,597.9196974000079,None,598.8224091000156,None,598.8224091000156,598.8860483000171,space,0.7986657999572344,598.8224091000156,None,None,None,ms_large,599.6548704000306,599.7190735000186,599.6548704000306,None,D01,2,2021_Apr_23_0943,subsecond_timing,2021.1.2,59.80764665125996,
ms_large,0.953,0.2,False,None,0,161,161,161,600.1691153000575,None,600.3529872000217,600.4019945000182,601.3021338000544,601.3521794000408,space,0.9047610000125133,601.3021338000544,None,602.238084200013,None,602.238084200013,602.3020265000523,space,0.7624210999929346,602.238084200013,None,None,None,ms_large,603.0213544000289,603.0851216000156,603.0213544000289,None,D01,2,2021_Apr_23_0943,subsecond_timing,2021.1.2,59.80764665125996,
ms_large,0.847,0.3,False,None,0,162,162,162,603.5351000000373,None,603.818033800053,603.8685042000143,604.6516298000352,604.7016799000558,space,0.980063599999994,604.6516298000352,None,605.6542179000098,None,605.6542179000098,605.7180009000003,space,0.8802451000083238,605.6542179000098,None,None,None,ms_large,606.5539839000558,606.6178671000525,606.5539839000558,None,D01,2,2021_Apr_23_0943,subsecond_timing,2021.1.2,59.80764665125996,
ms_large,0.988,0.1,False,None,0,163,163,163,607.067827800056,None,607.15165970003,607.2173529000138,608.1344418000081,608.1844411000493,space,0.8969788000104018,608.1344418000081,None,609.0540114000323,None,609.0540114000323,609.1175032000174,space,0.7568632999900728,609.0540114000323,None,None,None,ms_large,609.8365005000378,609.9007054000394,609.8365005000378,None,D01,2,2021_Apr_23_0943,subsecond_timing,2021.1.2,59.80764665125996,
ms_large,0.882,0.1,False,None,0,164,164,164,610.350593900017,None,610.4338367000455,610.4838323000004,611.3171485000057,611.3673350000172,space,0.7248648999957368,611.3171485000057,None,612.0700581000419,None,612.0700581000419,612.1335598000442,space,0.7706370999803767,612.0700581000419,None,None,None,ms_large,612.867635200033,612.9167653000331,612.867635200033,None,D01,2,2021_Apr_23_0943,subsecond_timing,2021.1.2,59.80764665125996,
ms_large,1.094,0.1,False,None,0,165,165,165,613.3670508000068,None,613.4500341000385,613.5001577000367,614.5332351000397,614.5832212000387,space,0.735223799943924,614.5332351000397,None,615.3024451000383,None,615.3024451000383,615.3663753000437,space,0.6921605000388809,615.3024451000383,None,None,None,ms_large,616.0179661000147,616.0828546000412,616.0179661000147,None,D01,2,2021_Apr_23_0943,subsecond_timing,2021.1.2,59.80764665125996,
ms_large,0.918,0.2,False,None,0,166,166,166,616.532920800033,None,616.7162569000502,616.7660751000512,617.6325490000308,617.6826240000082,space,0.8059302999754436,617.6325490000308,None,618.468171000015,None,618.468171000015,618.5164801000501,space,0.7838459000340663,618.468171000015,None,None,None,ms_large,619.2847638000385,619.3488463000394,619.2847638000385,None,D01,2,2021_Apr_23_0943,subsecond_timing,2021.1.2,59.80764665125996,
ms_large,1.024,0.3,False,None,0,167,167,167,619.7987877000123,None,620.0821373000508,620.132214900048,621.0986147000222,621.1485907000024,space,0.9293849000241607,621.0986147000222,None,622.0517273000441,None,622.0517273000441,622.1151614000555,space,0.7640191999962553,622.0517273000441,None,None,None,ms_large,622.8345415000222,622.8983037000289,622.8345415000222,None,D01,2,2021_Apr_23_0943,subsecond_timing,2021.1.2,59.80764665125996,
ms_large,1.059,0.1,False,None,0,168,168,168,623.3483737000497,None,623.4313730000285,623.481561600056,624.4813669000287,624.5305706000072,space,0.8086731000221334,624.4813669000287,None,625.3162341000279,None,625.3162341000279,625.3656224000151,space,0.755069199949503,625.3162341000279,None,None,None,ms_large,626.1002736000228,626.1644077000092,626.1002736000228,None,D01,2,2021_Apr_23_0943,subsecond_timing,2021.1.2,59.80764665125996,
ms_large,1.2,0.3,False,None,0,169,169,169,626.6143610000145,None,626.8978413000004,626.9475544000161,628.0974006000324,628.1474203000544,space,0.9772789000417106,628.0974006000324,None,629.1003939000075,None,629.1003939000075,629.1638737000176,space,0.8050796000170521,629.1003939000075,None,None,None,ms_large,629.9325295000453,629.9971460000379,629.9325295000453,None,D01,2,2021_Apr_23_0943,subsecond_timing,2021.1.2,59.80764665125996,
ms_large,1.165,0.3,False,None,0,170,170,170,630.4470691000461,None,630.7302607000456,630.7803033000091,631.880025600025,631.9303643000312,space,0.8501997999846935,631.880025600025,None,632.7497114000143,None,632.7497114000143,632.8133131000213,space,0.9025615999707952,632.7497114000143,None,None,None,ms_large,633.6820801000576,633.7463320000097,633.6820801000576,None,D01,2,2021_Apr_23_0943,subsecond_timing,2021.1.2,59.80764665125996,
ms_large,1.094,0.1,False,None,0,171,171,171,634.1958058000309,None,634.2795388000086,634.3295984000433,635.3622777000419,635.4125145000289,space,0.9183191999909468,635.3622777000419,None,636.2990554000135,None,636.2990554000135,636.3625348000205,space,0.8545815999968909,636.2990554000135,None,None,None,ms_large,637.1816673000576,637.2456979000126,637.1816673000576,None,D01,2,2021_Apr_23_0943,subsecond_timing,2021.1.2,59.80764665125996,
ms_large,1.024,0.1,False,None,0,172,172,172,637.6956505000126,None,637.7789716000552,637.8290983000188,638.7948332000524,638.8454753000406,space,0.8379952000104822,638.7948332000524,None,639.6650476000505,None,639.6650476000505,639.7286458000308,space,0.8264200999983586,639.6650476000505,None,None,None,ms_large,640.5143321000505,640.5785071999999,640.5143321000505,None,D01,2,2021_Apr_23_0943,subsecond_timing,2021.1.2,59.80764665125996,
ms_large,0.988,0.2,False,None,0,173,173,173,641.0277500000084,None,641.2116635000566,641.2616947000497,642.1943085000385,642.24484140001,space,0.7994794000405818,642.1943085000385,None,643.0144962000195,None,643.0144962000195,643.0782085000537,space,0.9246808999450877,643.0144962000195,None,None,None,ms_large,643.9633077000035,644.0276353000081,643.9633077000035,None,D01,2,2021_Apr_23_0943,subsecond_timing,2021.1.2,59.80764665125996,
ms_large,1.165,0.3,False,None,0,174,174,174,644.4778631000081,None,644.7611456000013,644.8109764000401,645.9107950000325,645.9608108000248,space,0.8332273000269197,645.9107950000325,None,646.7637762000086,None,646.7637762000086,646.8274781000218,space,0.9824439999647439,646.7637762000086,None,None,None,ms_large,647.7629811000079,647.8267002000357,647.7629811000079,None,D01,2,2021_Apr_23_0943,subsecond_timing,2021.1.2,59.80764665125996,
ms_large,0.847,0.1,False,None,0,175,175,175,648.2770412000245,None,648.3603643000242,648.4105456000543,649.1936928000068,649.2435809000162,space,0.7610002000001259,649.1936928000068,None,649.9798888000078,None,649.9798888000078,650.0432774000219,space,0.6383803999633528,649.9798888000078,None,None,None,ms_large,650.6461015000241,650.7099898000015,650.6461015000241,None,D01,2,2021_Apr_23_0943,subsecond_timing,2021.1.2,59.80764665125996,
ms_large,1.2,0.1,False,None,0,176,176,176,651.1601682000328,None,651.2427469000104,651.2931960000424,652.4429921000265,652.4930085000233,space,0.7433492999989539,652.4429921000265,None,653.2128148000338,None,653.2128148000338,653.2762972000055,space,0.9813341000117362,653.2128148000338,None,None,None,ms_large,654.2114935000427,654.2760524000041,654.2114935000427,None,D01,2,2021_Apr_23_0943,subsecond_timing,2021.1.2,59.80764665125996,
ms_large,0.882,0.1,False,None,0,177,177,177,654.7260489000473,None,654.8093415000476,654.8593248000252,655.6915845000185,655.7424274000223,space,0.9259120999486186,655.6915845000185,None,656.6454001000384,None,656.6454001000384,656.7089414000511,space,0.9941871000337414,656.6454001000384,None,None,None,ms_large,657.661378000048,657.7254994000541,657.661378000048,None,D01,2,2021_Apr_23_0943,subsecond_timing,2021.1.2,59.80764665125996,
ms_large,1.129,0.1,False,None,0,178,178,178,658.175277900009,None,658.2587071000016,658.3086504000239,659.3750624000095,659.4251303000492,space,0.9502847000258043,659.3750624000095,None,660.3446159000159,None,660.3446159000159,660.4083795000333,space,1.1257708999910392,660.3446159000159,None,None,None,ms_large,661.4937980000395,661.5581976000103,661.4937980000395,None,D01,2,2021_Apr_23_0943,subsecond_timing,2021.1.2,59.80764665125996,
ms_large,0.953,0.1,False,None,0,179,179,179,662.0080178000499,None,662.0914126000134,662.1412732000463,663.0411756000249,663.0913517000154,space,0.8093596999533474,663.0411756000249,None,663.877380800026,None,663.877380800026,663.9403973000008,space,0.822999800031539,663.877380800026,None,None,None,ms_large,664.7263291000272,664.7907450000057,664.7263291000272,None,D01,2,2021_Apr_23_0943,subsecond_timing,2021.1.2,59.80764665125996,
ms_large,0.918,0.3,False,None,0,180,180,180,665.240719500056,None,665.5235174000263,665.5733915000455,666.4404877000488,666.4906168000307,space,0.978244400001131,666.4404877000488,None,667.4435600000434,None,667.4435600000434,667.5069999000407,space,0.8475319999852218,667.4435600000434,None,None,None,ms_large,668.3094100000453,668.3735135000315,668.3094100000453,None,D01,2,2021_Apr_23_0943,subsecond_timing,2021.1.2,59.80764665125996,
ms_large,1.059,0.2,False,None,0,181,181,181,668.8234047000296,None,669.0068036000011,669.0568036000477,670.0566923000151,670.1065385000547,space,0.8486993999686092,670.0566923000151,None,670.9263415000169,None,670.9263415000169,670.9897010000423,space,0.9408730999566615,670.9263415000169,None,None,None,ms_large,671.8920549000031,671.956220400054,671.8920549000031,None,D01,2,2021_Apr_23_0943,subsecond_timing,2021.1.2,59.80764665125996,
ms_large,1.165,0.1,False,None,0,182,182,182,672.4060240000254,None,672.4893688000157,672.5400028000004,673.639401100052,673.6889268000377,space,0.8869375000358559,673.639401100052,None,674.5589323000167,None,674.5589323000167,674.6225186000229,space,0.9750422000070103,674.5589323000167,None,None,None,ms_large,675.5582514000125,675.6223462000489,675.5582514000125,None,D01,2,2021_Apr_23_0943,subsecond_timing,2021.1.2,59.80764665125996,
ms_large,1.024,0.3,False,None,0,183,183,183,676.0721998000517,None,676.3553940000129,676.4053188000107,677.3718693000264,677.4218662000494,space,0.916115699976217,677.3718693000264,None,678.3071837000316,None,678.3071837000316,678.3710910000373,space,1.0720479000010528,678.3071837000316,None,None,None,ms_large,679.4052490000031,679.4543350000167,679.4052490000031,None,D01,2,2021_Apr_23_0943,subsecond_timing,2021.1.2,59.80764665125996,
ms_large,1.2,0.2,False,None,0,184,184,184,679.9048459000187,None,680.0880140000372,680.1381281000213,681.2878053000313,681.3378004000406,space,0.8703657999867573,681.2878053000313,None,682.2028019000427,None,682.2028019000427,682.2547863000073,space,0.9879027000279166,682.2028019000427,None,None,None,ms_large,683.2232109000324,683.2875708000502,683.2232109000324,None,D01,2,2021_Apr_23_0943,subsecond_timing,2021.1.2,59.80764665125996,
ms_large,0.882,0.3,False,None,0,185,185,185,683.737401200051,None,684.0200425000512,684.0706578000099,684.8873733000364,684.9377796000335,space,1.0583266000030562,684.8873733000364,None,685.973413700005,None,685.973413700005,686.0369869000278,space,0.9066421000170521,685.973413700005,None,None,None,ms_large,686.9059708000277,686.9701546000433,686.9059708000277,None,D01,2,2021_Apr_23_0943,subsecond_timing,2021.1.2,59.80764665125996,
ms_large,1.129,0.3,False,None,0,186,186,186,687.4201673000352,None,687.7033640000154,687.7533468000474,688.8197856000043,688.8698761000414,space,1.053568700037431,688.8197856000043,None,689.9060988000128,None,689.9060988000128,689.9697043000488,space,0.9372414000099525,689.9060988000128,None,None,None,ms_large,690.8718188000494,690.9360475000576,690.8718188000494,None,D01,2,2021_Apr_23_0943,subsecond_timing,2021.1.2,59.80764665125996,
ms_large,0.953,0.1,False,None,0,187,187,187,691.3861167000141,None,691.4694195000338,691.5193223000388,692.4190670000389,692.4692044000258,space,0.903458499989938,692.4190670000389,None,693.355603300035,None,693.355603300035,693.4191952000256,space,0.9367667000042275,693.355603300035,None,None,None,ms_large,694.3213991000084,694.3855022000498,694.3213991000084,None,D01,2,2021_Apr_23_0943,subsecond_timing,2021.1.2,59.80764665125996,
ms_large,0.988,0.1,False,None,0,188,188,188,694.8354246000526,None,694.918676100031,694.9686530000181,695.9019648000249,695.9519826000324,space,0.8330298999790102,695.9019648000249,None,696.7549242000096,None,696.7549242000096,696.8184960000217,space,0.8258504999685101,696.7549242000096,None,None,None,ms_large,697.6039148000418,697.6682800000417,697.6039148000418,None,D01,2,2021_Apr_23_0943,subsecond_timing,2021.1.2,59.80764665125996,
ms_large,0.918,0.3,False,None,0,189,189,189,698.1182402000413,None,698.4015599000268,698.4514766000211,699.3181331000524,699.3681332000415,space,0.8915986000210978,699.3181331000524,None,700.2375929000555,None,700.2375929000555,700.301179800008,space,0.7542099999845959,700.2375929000555,None,None,None,ms_large,701.0199941000319,701.0842283000238,701.0199941000319,None,D01,2,2021_Apr_23_0943,subsecond_timing,2021.1.2,59.80764665125996,
ms_large,1.059,0.2,False,None,0,190,190,190,701.5341781000025,None,701.7174812000012,701.7675278000534,702.7672486000229,702.8173804000253,space,0.9439359999960288,702.7672486000229,None,703.7370471000322,None,703.7370471000322,703.8006110000424,space,0.7633588000317104,703.7370471000322,None,None,None,ms_large,704.5186494000372,704.5837092000293,704.5186494000372,None,D01,2,2021_Apr_23_0943,subsecond_timing,2021.1.2,59.80764665125996,
ms_large,0.847,0.3,False,None,0,191,191,191,705.0338395000435,None,705.3167909000185,705.3666187000345,706.1661627000431,706.2163131000125,space,0.8922648999723606,706.1661627000431,None,707.0863171000383,None,707.0863171000383,707.1348965000361,space,0.822353399998974,707.0863171000383,None,None,None,ms_large,707.9347392000491,707.9997985000373,707.9347392000491,None,D01,2,2021_Apr_23_0943,subsecond_timing,2021.1.2,59.80764665125996,
ms_large,1.094,0.3,False,None,0,192,192,192,708.4508560000104,None,708.7179529000423,708.7676015000325,709.8160365000367,709.8661006000475,space,0.793622899975162,709.8160365000367,None,710.6353130000061,None,710.6353130000061,710.6993613000377,space,0.603731399984099,710.6353130000061,None,None,None,ms_large,711.2675428000512,711.3324496000423,711.2675428000512,None,D01,2,2021_Apr_23_0943,subsecond_timing,2021.1.2,59.80764665125996,
ms_large,0.847,0.1,False,None,0,193,193,193,711.7823637000402,None,711.8656910000136,711.9158720000414,712.6989328000345,712.7492162000271,space,0.7742049999651499,712.6989328000345,None,713.5010504000238,None,713.5010504000238,713.5657732000109,space,0.6394423999590799,713.5010504000238,None,None,None,ms_large,714.1675845000427,714.2319212000002,714.1675845000427,None,D01,2,2021_Apr_23_0943,subsecond_timing,2021.1.2,59.80764665125996,
ms_large,1.2,0.2,False,None,0,194,194,194,714.6818149000173,None,714.8652324000141,714.9151180000044,716.0652027000324,716.1150378000457,space,0.9350076999980956,716.0652027000324,None,717.0345823000534,None,717.0345823000534,717.0981591000455,space,1.1301730999839492,717.0345823000534,None,None,None,ms_large,718.183740700013,718.2480035000481,718.183740700013,None,D01,2,2021_Apr_23_0943,subsecond_timing,2021.1.2,59.80764665125996,
ms_large,0.918,0.3,False,None,0,195,195,195,718.6979047000059,None,718.9811398000456,719.0311474000337,719.8975438000052,719.9476344000432,space,0.9914855000097305,719.8975438000052,None,720.9172216000152,None,720.9172216000152,720.980930300022,space,0.9316223000059836,720.9172216000152,None,None,None,ms_large,721.8661206000252,721.9305439000018,721.8661206000252,None,D01,2,2021_Apr_23_0943,subsecond_timing,2021.1.2,59.80764665125996,
ms_large,1.024,0.2,False,None,0,196,196,196,722.3805795000517,None,722.5629838000168,722.6137313000509,723.5798362000496,723.6310432000319,space,0.9775007999851368,723.5798362000496,None,724.5832925000577,None,724.5832925000577,724.6469242000021,space,1.0468662999919616,724.5832925000577,None,None,None,ms_large,725.6488348000566,725.7132995000575,725.6488348000566,None,D01,2,2021_Apr_23_0943,subsecond_timing,2021.1.2,59.80764665125996,
ms_large,1.094,0.1,False,None,0,197,197,197,726.1632064000005,None,726.246549100033,726.2965931000072,727.3297547000111,727.3798043000279,space,0.9540124000050128,727.3297547000111,None,728.3158744000248,None,728.3158744000248,728.3796341000125,space,1.168401500035543,728.3158744000248,None,None,None,ms_large,729.5144683000399,729.579248300055,729.5144683000399,None,D01,2,2021_Apr_23_0943,subsecond_timing,2021.1.2,59.80764665125996,
ms_large,0.953,0.1,False,None,0,198,198,198,730.0291266000131,None,730.1123967000167,730.1623771000304,731.0623209000332,731.1120877000503,space,0.8780464999726973,731.0623209000332,None,731.9644165000063,None,731.9644165000063,732.0288916000281,space,0.8551651000161655,731.9644165000063,None,None,None,ms_large,732.8474708000431,732.9118982000509,732.8474708000431,None,D01,2,2021_Apr_23_0943,subsecond_timing,2021.1.2,59.80764665125996,
ms_large,1.129,0.3,False,None,0,199,199,199,733.3618592000566,None,733.6455816000234,733.6954389000311,734.7615249000373,734.81111530005,space,1.1920533999800682,734.7615249000373,None,735.992506300041,None,735.992506300041,736.0447456000256,space,0.8883668999769725,735.992506300041,None,None,None,ms_large,736.9135874000494,736.977859900042,736.9135874000494,None,D01,2,2021_Apr_23_0943,subsecond_timing,2021.1.2,59.80764665125996,
ms_large,0.988,0.1,False,None,0,200,200,200,737.4278052000445,None,737.5110377000528,737.5610268000164,738.4942834000103,738.5442700000131,space,1.0363019999931566,738.4942834000103,None,739.5635196000221,None,739.5635196000221,739.6114449000452,space,0.905971500033047,739.5635196000221,None,None,None,ms_large,740.4970698000398,740.5601589000435,740.4970698000398,None,D01,2,2021_Apr_23_0943,subsecond_timing,2021.1.2,59.80764665125996,
ms_large,0.882,0.3,False,None,0,201,201,201,741.0104899000144,None,741.2938027000055,741.3437274000025,742.177106600022,742.2269265000359,space,0.9317646999843419,742.177106600022,None,743.1298164000036,None,743.1298164000036,743.1787984000403,space,0.6749036000110209,743.1298164000036,None,None,None,ms_large,743.8290042000008,743.8932497000205,743.8290042000008,None,D01,2,2021_Apr_23_0943,subsecond_timing,2021.1.2,59.80764665125996,
ms_large,1.059,0.3,False,None,0,202,202,202,744.3431549000088,None,744.6257767000352,744.676503100025,745.67640570004,745.7262593000196,space,0.8661280999658629,745.67640570004,None,746.5625974000432,None,746.5625974000432,746.6114162000013,space,1.0025905999937095,746.5625974000432,None,None,None,ms_large,747.5946790000307,747.6592707000091,747.5946790000307,None,D01,2,2021_Apr_23_0943,subsecond_timing,2021.1.2,59.80764665125996,
ms_large,1.165,0.2,False,None,0,203,203,203,748.1091619000072,None,748.2925994000398,748.3424598000129,749.4591002000379,749.5089971000561,space,1.7757830999908037,749.4591002000379,None,751.2616870000493,None,751.2616870000493,751.3108067000285,space,1.060843700019177,751.2616870000493,None,None,None,ms_large,752.3439556000521,752.408381300047,752.3439556000521,None,D01,2,2021_Apr_23_0943,subsecond_timing,2021.1.2,59.80764665125996,
ms_large,0.953,0.2,False,None,0,204,204,204,752.858519100002,None,753.0408885000506,753.091621700034,753.9914715000195,754.0414738000254,space,1.0414586000260897,753.9914715000195,None,755.0610830000369,None,755.0610830000369,755.1245625000447,space,1.0116704000392929,755.0610830000369,None,None,None,ms_large,756.0927829000284,756.1577844000421,756.0927829000284,None,D01,2,2021_Apr_23_0943,subsecond_timing,2021.1.2,59.80764665125996,
ms_large,1.094,0.3,False,None,0,205,205,205,756.6077523000422,None,756.891162600019,756.9410176000092,757.974055000057,758.0240478000487,space,1.0531380000174977,757.974055000057,None,759.0603662000503,None,759.0603662000503,759.1238177000196,space,0.8429358000284992,759.0603662000503,None,None,None,ms_large,759.9260034000035,759.9904789000284,759.9260034000035,None,D01,2,2021_Apr_23_0943,subsecond_timing,2021.1.2,59.80764665125996,
ms_large,1.2,0.2,False,None,0,206,206,206,760.4403053000569,None,760.6237177000148,760.6735813000123,761.8228373000165,761.8733089000452,space,0.8840668999473564,761.8228373000165,None,762.7260853000334,None,762.7260853000334,762.789877400035,space,0.9740040000178851,762.7260853000334,None,None,None,ms_large,763.7254561000154,763.7897003000253,763.7254561000154,None,D01,2,2021_Apr_23_0943,subsecond_timing,2021.1.2,59.80764665125996,
ms_large,1.024,0.1,False,None,0,207,207,207,764.2388711000094,None,764.3229621000355,764.3729436000576,765.3385426000459,765.3896197000286,space,0.9782794000348076,765.3385426000459,None,766.3423691000207,None,766.3423691000207,766.3898378000013,space,0.7928028999594972,766.3423691000207,None,None,None,ms_large,767.1583806000417,767.2223886000575,767.1583806000417,None,D01,2,2021_Apr_23_0943,subsecond_timing,2021.1.2,59.80764665125996,
ms_large,0.847,0.3,False,None,0,208,208,208,767.6724680000334,None,767.9556074000429,768.0056119000074,768.788898000028,768.8389614000334,space,0.6872151999850757,768.788898000028,None,769.5203851000406,None,769.5203851000406,769.5725447000004,space,0.5336824999540113,769.5203851000406,None,None,None,ms_large,770.0743789000553,770.1386409000261,770.0743789000553,None,D01,2,2021_Apr_23_0943,subsecond_timing,2021.1.2,59.80764665125996,
ms_large,1.129,0.2,False,None,0,209,209,209,770.5885188000393,None,770.771800400049,770.8224381000036,771.8885132000432,771.9387434000382,space,0.9036132999463007,771.8885132000432,None,772.8242789000506,None,772.8242789000506,772.8882486000075,space,1.130427600000985,772.8242789000506,None,None,None,ms_large,773.9736645000521,774.0378380000475,773.9736645000521,None,D01,2,2021_Apr_23_0943,subsecond_timing,2021.1.2,59.80764665125996,
ms_large,1.165,0.3,False,None,0,210,210,210,774.4877957000281,None,774.7711773000192,774.8211855000118,775.9210560000502,775.9722916000173,space,0.8214749000035226,775.9210560000502,None,776.7731703000027,None,776.7731703000027,776.8374282000004,space,0.8728418999817222,776.7731703000027,None,None,None,ms_large,777.6736231000395,777.7371713000466,777.6736231000395,None,D01,2,2021_Apr_23_0943,subsecond_timing,2021.1.2,59.80764665125996,
ms_large,0.988,0.3,False,None,0,211,211,211,778.1872324000578,None,778.4705749000423,778.5205875000102,779.4535509000416,779.5036788000143,space,0.8217400999856181,779.4535509000416,None,780.3065375000006,None,780.3065375000006,780.3700923000579,space,0.9223011999856681,780.3065375000006,None,None,None,ms_large,781.2558195000165,781.3198703000089,781.2558195000165,None,D01,2,2021_Apr_23_0943,subsecond_timing,2021.1.2,59.80764665125996,
ms_large,0.882,0.3,False,None,0,212,212,212,781.7698398000211,None,782.0531741000013,782.1025628000498,782.9364101000247,782.9863356000278,space,0.8530586999841034,782.9364101000247,None,783.8223631000146,None,783.8223631000146,783.8861715000239,space,0.872288100013975,783.8223631000146,None,None,None,ms_large,784.7213876000023,784.7858971000533,784.7213876000023,None,D01,2,2021_Apr_23_0943,subsecond_timing,2021.1.2,59.80764665125996,
ms_large,1.059,0.2,False,None,0,213,213,213,785.2358156000264,None,785.4188588000252,785.4688344000024,786.4690981000313,786.5189983000164,space,0.8675940000102855,786.4690981000313,None,787.3551727000158,None,787.3551727000158,787.4040251000552,space,0.934497999958694,787.3551727000158,None,None,None,ms_large,788.3208369000349,788.385270800034,788.3208369000349,None,D01,2,2021_Apr_23_0943,subsecond_timing,2021.1.2,59.80764665125996,
ms_large,0.918,0.3,False,None,0,214,214,214,788.8346131000435,None,789.1184418000048,789.1684965000022,790.0350994000328,790.0841856000479,space,0.9093511999817565,790.0350994000328,None,790.9709466000204,None,790.9709466000204,791.0343085000059,space,0.8574980999692343,790.9709466000204,None,None,None,ms_large,791.8539638000075,791.9180058000493,791.8539638000075,None,D01,2,2021_Apr_23_0943,subsecond_timing,2021.1.2,59.80764665125996,
ms_large,0.953,0.2,False,None,0,215,215,215,792.3678179000271,None,792.5513730000239,792.6011432000087,793.5012502000318,793.5509631000459,space,0.9226490999571979,793.5012502000318,None,794.4519472000538,None,794.4519472000538,794.5173565000296,space,0.8823587999795564,794.4519472000538,None,None,None,ms_large,795.3532971000532,795.4171590000042,795.3532971000532,None,D01,2,2021_Apr_23_0943,subsecond_timing,2021.1.2,59.80764665125996,
ms_large,0.847,0.3,False,None,0,216,216,216,795.8673886000179,None,796.1505181000102,796.2005814000149,796.9840088000055,797.0340152000426,space,0.9277789000188932,796.9840088000055,None,797.9367321000318,None,797.9367321000318,798.0003161000204,space,0.8130569000495598,797.9367321000318,None,None,None,ms_large,798.7694839000469,798.8333620000049,798.7694839000469,None,D01,2,2021_Apr_23_0943,subsecond_timing,2021.1.2,59.80764665125996,
ms_large,1.024,0.1,False,None,0,217,217,217,799.2833830000018,None,799.366802100034,799.4163609000389,800.3832584000193,800.4334368000273,space,0.8648123000166379,800.3832584000193,None,801.2691996000358,None,801.2691996000358,801.3184212000342,space,1.0498322999919765,801.2691996000358,None,None,None,ms_large,802.3516180000152,802.4159399000346,802.3516180000152,None,D01,2,2021_Apr_23_0943,subsecond_timing,2021.1.2,59.80764665125996,
ms_large,1.059,0.3,False,None,0,218,218,218,802.8659979000222,None,803.1494618000579,803.1993050000165,804.1990921000252,804.2492728000507,space,1.0276024999911897,804.1990921000252,None,805.249890200037,None,805.249890200037,805.3155947000487,space,0.9726290999678895,805.249890200037,None,None,None,ms_large,806.2512740000384,806.3153950000415,806.2512740000384,None,D01,2,2021_Apr_23_0943,subsecond_timing,2021.1.2,59.80764665125996,
ms_large,0.988,0.1,False,None,0,219,219,219,806.7647822000436,None,806.8484100000351,806.8986990000121,807.8310377000016,807.8819589000195,space,0.892461400013417,807.8310377000016,None,808.7513602000545,None,808.7513602000545,808.800520400051,space,0.8805554999853484,808.7513602000545,None,None,None,ms_large,809.6506399000064,809.7147899000556,809.6506399000064,None,D01,2,2021_Apr_23_0943,subsecond_timing,2021.1.2,59.80764665125996,
ms_large,1.094,0.1,False,None,0,220,220,220,810.1647514000069,None,810.2476394000114,810.298072500038,811.330862200004,811.3810148000484,space,0.8163030999712646,811.330862200004,None,812.1675069000339,None,812.1675069000339,812.2310676000197,space,0.8429326000041328,812.1675069000339,None,None,None,ms_large,813.0334201000514,813.0976006000419,813.0334201000514,None,D01,2,2021_Apr_23_0943,subsecond_timing,2021.1.2,59.80764665125996,
ms_large,0.918,0.3,False,None,0,221,221,221,813.5485093000461,None,813.8307289000368,813.8807949000038,814.7468653000542,814.7973183000577,space,0.9757345999823883,814.7468653000542,None,815.7497687000432,None,815.7497687000432,815.7990563000203,space,1.0098238000064157,815.7497687000432,None,None,None,ms_large,816.782430900028,816.8470251000253,816.782430900028,None,D01,2,2021_Apr_23_0943,subsecond_timing,2021.1.2,59.80764665125996,
ms_large,0.882,0.1,False,None,0,222,222,222,817.2967475000187,None,817.3800956000341,817.4300247000065,818.2632434000261,818.3133325000526,space,0.9882459999644198,818.2632434000261,None,819.281319200003,None,819.281319200003,819.3307223000447,space,0.939842099964153,819.281319200003,None,None,None,ms_large,820.2486830000416,820.3129347000504,820.2486830000416,None,D01,2,2021_Apr_23_0943,subsecond_timing,2021.1.2,59.80764665125996,
ms_large,1.129,0.2,False,None,0,223,223,223,820.76282610005,None,820.9461117000319,820.9961251000059,822.0625612000003,822.1126533000497,space,0.9378570000408217,822.0625612000003,None,823.044190100045,None,823.044190100045,823.0964667000226,space,0.9922972000204027,823.044190100045,None,None,None,ms_large,824.064649900014,824.1289957000408,824.064649900014,None,D01,2,2021_Apr_23_0943,subsecond_timing,2021.1.2,59.80764665125996,
ms_large,1.165,0.3,False,None,0,224,224,224,824.578814700013,None,824.8618751000031,824.9116579000256,826.0282625000109,826.0780555000529,space,1.0252256999956444,826.0282625000109,None,827.0814736000029,None,827.0814736000029,827.1448008000152,space,0.9854064999963157,827.0814736000029,None,None,None,ms_large,828.0971630000276,828.1614751000307,828.0971630000276,None,D01,2,2021_Apr_23_0943,subsecond_timing,2021.1.2,59.80764665125996,
