stimulus_range,stimulus_duration,onset,feedback,feedback_range_fromfile,trials.thisRepN,trials.thisTrialN,trials.thisN,trials.thisIndex,fixation_cross.started,fixation_cross.stopped,interval_start.started,interval_start.stopped,interval_end.started,interval_end.stopped,key_resp_start.keys,key_resp_start.rt,key_resp_start.started,key_resp_start.stopped,fixation_cross_reproduction.started,fixation_cross_reproduction.stopped,reproduction_start.started,reproduction_start.stopped,key_resp_stop.keys,key_resp_stop.rt,key_resp_stop.started,key_resp_stop.stopped,feedback_range,hit,stimulus_range,reproduction_end.started,reproduction_end.stopped,fixation_cross_feedback.started,fixation_cross_feedback.stopped,participant,session,date,expName,psychopyVersion,frameRate,
Training,1,0.3,True,0.3,0,0,0,0,24.055496799992397,None,24.3378750999982,24.387909699988086,25.33732069999678,25.387752399983583,space,1.0445793000108097,25.33732069999678,None,26.411461199983023,None,26.411461199983023,26.470118700002786,space,0.7986913999775425,26.411461199983023,None,0.3,True,Training,27.2408014999819,27.304025899997214,27.2408014999819,None,D01,1,2021_Apr_22_2030,subsecond_timing,2021.1.2,60.0839854012801,
Training,0.75,0.1,True,0.3,0,1,1,1,27.754077799996594,None,27.837347599997884,27.887338999978965,28.5872362999944,28.63848510000389,space,0.9440976000041701,28.5872362999944,None,29.556809300003806,None,29.556809300003806,29.620398600003682,space,0.5297122999909334,29.556809300003806,None,0.3,True,Training,30.105895499989856,30.170244299981277,30.105895499989856,None,D01,1,2021_Apr_22_2030,subsecond_timing,2021.1.2,60.0839854012801,
Training,0.5,0.1,True,0.3,0,2,2,2,30.62018139997963,None,30.703551799990237,30.753553899994586,31.20354590000352,31.254084799991688,space,0.6231236000021454,31.20354590000352,None,31.856426899990765,None,31.856426899990765,31.919798499991884,space,0.4482690000149887,31.856426899990765,None,0.3,True,Training,32.322773699997924,32.38645229997928,32.322773699997924,None,D01,1,2021_Apr_22_2030,subsecond_timing,2021.1.2,60.0839854012801,
Training,0.5,0.2,True,0.3,0,3,3,3,32.83649099999457,None,33.01981509997859,33.06986629997846,33.51962389997789,33.57030229998054,space,0.6354437999834772,33.51962389997789,None,34.18939250000403,None,34.18939250000403,34.25302770000417,space,0.4358776999870315,34.18939250000403,None,0.3,True,Training,34.655425599979935,34.71947139999247,34.655425599979935,None,D01,1,2021_Apr_22_2030,subsecond_timing,2021.1.2,60.0839854012801,
Training,0.75,0.2,True,0.3,0,4,4,4,35.16933549998794,None,35.35275069999625,35.40263359999517,36.10249199997634,36.15264329998172,space,0.6626465000153985,36.10249199997634,None,36.7888461999828,None,36.7888461999828,36.85170729999663,space,0.5943101999873761,36.7888461999828,None,0.3,True,Training,37.41774219999206,37.46895399998175,37.41774219999206,None,D01,1,2021_Apr_22_2030,subsecond_timing,2021.1.2,60.0839854012801,
Training,1,0.3,True,0.3,0,5,5,5,37.918150899989996,None,38.20214169999235,38.25222439999925,39.20203929999843,39.252453099994455,space,0.8153496999875642,39.20203929999843,None,40.03881639998872,None,40.03881639998872,40.1010214999842,space,0.712758700014092,40.03881639998872,None,0.3,True,Training,40.771385300002294,40.834840800001984,40.771385300002294,None,D01,1,2021_Apr_22_2030,subsecond_timing,2021.1.2,60.0839854012801,
ms_small,0.706,0.2,False,None,0,6,6,6,41.28441110000131,None,41.46818870000425,41.51827189998585,42.168124099989654,42.21870040000067,space,0.7200480999890715,42.168124099989654,None,42.92124799999874,None,42.92124799999874,42.969561499980045,space,0.5451568999851588,42.92124799999874,None,None,None,ms_small,43.487252199993236,43.551039599988144,43.487252199993236,None,D01,1,2021_Apr_22_2030,subsecond_timing,2021.1.2,60.0839854012801,
ms_small,0.812,0.3,False,None,0,7,7,7,44.00111409998499,None,44.28447349998169,44.33444039997994,45.084262799995486,45.134943199984264,space,0.7680648000095971,45.084262799995486,None,45.88592819997575,None,45.88592819997575,45.9506701999926,space,0.6998433000117075,45.88592819997575,None,None,None,ms_small,46.61999159998959,46.68395679999958,46.61999159998959,None,D01,1,2021_Apr_22_2030,subsecond_timing,2021.1.2,60.0839854012801,
ms_small,0.847,0.1,False,None,0,8,8,8,47.13359679997666,None,47.21702099998947,47.26710729999468,48.0504179999989,48.10113269998692,space,0.8461799999931827,48.0504179999989,None,48.9201466999948,None,48.9201466999948,48.983645899978,space,0.7048586000164505,48.9201466999948,None,None,None,ms_small,49.652793499990366,49.716667400003644,49.652793499990366,None,D01,1,2021_Apr_22_2030,subsecond_timing,2021.1.2,60.0839854012801,
ms_small,0.67,0.3,False,None,0,9,9,9,50.1666644999932,None,50.449585299997125,50.49940919998335,51.11655279999832,51.167357899976196,space,0.8871868999849539,51.11655279999832,None,52.03600789999473,None,52.03600789999473,52.10014689998934,space,0.6864488999999594,52.03600789999473,None,None,None,ms_small,52.751682200003415,52.81570469998405,52.751682200003415,None,D01,1,2021_Apr_22_2030,subsecond_timing,2021.1.2,60.0839854012801,
ms_small,0.988,0.1,False,None,0,10,10,10,53.26609219997772,None,53.34960679998039,53.399517999991076,54.33268989998032,54.383391199982725,space,0.8742326000065077,54.33268989998032,None,55.23555429998669,None,55.23555429998669,55.29918370000087,space,0.7237921000050846,55.23555429998669,None,None,None,ms_small,55.98392359999707,56.048801700002514,55.98392359999707,None,D01,1,2021_Apr_22_2030,subsecond_timing,2021.1.2,60.0839854012801,
ms_small,0.953,0.1,False,None,0,11,11,11,56.4990703999938,None,56.58222759998171,56.63223239997751,57.5321350999875,57.58269109998946,space,2.264436700002989,57.5321350999875,None,59.81828889998724,None,59.81828889998724,59.88160909997532,space,0.9476591000275221,59.81828889998724,None,None,None,ms_small,60.7959176999866,60.84808609998436,60.7959176999866,None,D01,1,2021_Apr_22_2030,subsecond_timing,2021.1.2,60.0839854012801,
ms_small,0.882,0.3,False,None,0,12,12,12,61.298007499979576,None,61.581318699987605,61.631390499998815,62.46446359998663,62.51548629999161,space,0.9741359000036027,62.46446359998663,None,63.46744739997666,None,63.46744739997666,63.53116990000126,space,0.8510116999968886,63.46744739997666,None,None,None,ms_small,64.34989270000369,64.41411250000237,64.34989270000369,None,D01,1,2021_Apr_22_2030,subsecond_timing,2021.1.2,60.0839854012801,
ms_small,0.918,0.1,False,None,0,13,13,13,64.86414180000429,None,64.94737859998713,64.99735229997896,65.86387370000011,65.91465389999212,space,1.1013673999987077,65.86387370000011,None,66.98342629999388,None,66.98342629999388,67.03305070000351,space,0.9687155999999959,66.98342629999388,None,None,None,ms_small,67.9825677999761,68.04673750000075,67.9825677999761,None,D01,1,2021_Apr_22_2030,subsecond_timing,2021.1.2,60.0839854012801,
ms_small,0.776,0.2,False,None,0,14,14,14,68.49683659998118,None,68.67989489997854,68.73012009999366,69.44665359999635,69.49714969997876,space,0.9642464999924414,69.44665359999635,None,70.43289689999074,None,70.43289689999074,70.49635719999787,space,0.8063164000050165,70.43289689999074,None,None,None,ms_small,71.26597849998507,71.32957869998063,71.26597849998507,None,D01,1,2021_Apr_22_2030,subsecond_timing,2021.1.2,60.0839854012801,
ms_small,0.741,0.3,False,None,0,15,15,15,71.7794947999937,None,72.06281449997914,72.11325569998007,72.7960652000038,72.8466101999802,space,0.8975923999969382,72.7960652000038,None,73.71571170000243,None,73.71571170000243,73.7790872999758,space,0.7768454999895766,73.71571170000243,None,None,None,ms_small,74.5125296000042,74.56220849999227,74.5125296000042,None,D01,1,2021_Apr_22_2030,subsecond_timing,2021.1.2,60.0839854012801,
ms_small,1.024,0.3,False,None,0,16,16,16,75.01275500000338,None,75.29549579997547,75.34565019997535,76.31209019999369,76.3628303000005,space,0.8488475999911316,76.31209019999369,None,77.18190169997979,None,77.18190169997979,77.24522149999393,space,0.906061600020621,77.18190169997979,None,None,None,ms_small,78.1146273999766,78.17831099999603,78.1146273999766,None,D01,1,2021_Apr_22_2030,subsecond_timing,2021.1.2,60.0839854012801,
ms_small,0.67,0.1,False,None,0,17,17,17,78.62822589999996,None,78.71174430000247,78.76159549999284,79.37810639999225,79.42860749998363,space,0.864495399990119,79.37810639999225,None,80.26439179998124,None,80.26439179998124,80.32777249999344,space,1.6062455999781378,80.26439179998124,None,None,None,ms_small,81.89739259998896,81.96087759998045,81.89739259998896,None,D01,1,2021_Apr_22_2030,subsecond_timing,2021.1.2,60.0839854012801,
ms_small,0.812,0.3,False,None,0,18,18,18,82.411878599989,None,82.69408929999918,82.74417329998687,83.49412429999211,83.5447140999895,space,0.9246064999897499,83.49412429999211,None,84.44673609998426,None,84.44673609998426,84.51051459999871,space,0.786014300014358,84.44673609998426,None,None,None,ms_small,85.26278560000355,85.32694379999884,85.26278560000355,None,D01,1,2021_Apr_22_2030,subsecond_timing,2021.1.2,60.0839854012801,
ms_small,0.953,0.3,False,None,0,19,19,19,85.77715839998564,None,86.06030939999619,86.11026819999097,87.01045579998754,87.06004849998862,space,0.8903901999874506,87.01045579998754,None,87.92983479998657,None,87.92983479998657,87.99322969999048,space,0.7772070000064559,87.92983479998657,None,None,None,ms_small,88.72884440000053,88.79308149998542,88.72884440000053,None,D01,1,2021_Apr_22_2030,subsecond_timing,2021.1.2,60.0839854012801,
ms_small,0.776,0.1,False,None,0,20,20,20,89.24300219997531,None,89.32563909998862,89.37578719999874,90.09283660000074,90.14349139999831,space,0.7940008000005037,90.09283660000074,None,90.91270439999062,None,90.91270439999062,90.97617909999099,space,0.6999123000132386,90.91270439999062,None,None,None,ms_small,91.64397619999363,91.70869430000312,91.64397619999363,None,D01,1,2021_Apr_22_2030,subsecond_timing,2021.1.2,60.0839854012801,
ms_small,0.741,0.2,False,None,0,21,21,21,92.1591634999786,None,92.34243140000035,92.39250509999692,93.07573939999565,93.12660039999173,space,0.8825336000008974,93.07573939999565,None,93.97761609998997,None,93.97761609998997,94.04212229998666,space,0.6274905000173021,93.97761609998997,None,None,None,ms_small,94.6281267000013,94.69202749998658,94.6281267000013,None,D01,1,2021_Apr_22_2030,subsecond_timing,2021.1.2,60.0839854012801,
ms_small,0.847,0.2,False,None,0,22,22,22,95.14182269998128,None,95.32522759999847,95.37528649999877,96.15809230000013,96.20814029997564,space,0.816924899991136,96.15809230000013,None,96.9945819999848,None,96.9945819999848,97.05835469998419,space,0.7967537999793421,96.9945819999848,None,None,None,ms_small,97.81053009998868,97.87476439998136,97.81053009998868,None,D01,1,2021_Apr_22_2030,subsecond_timing,2021.1.2,60.0839854012801,
ms_small,1.024,0.1,False,None,0,23,23,23,98.32478110000375,None,98.4080553999811,98.45784119999735,99.42451429998619,99.47507149999728,space,0.7400055000034627,99.42451429998619,None,100.19396569998935,None,100.19396569998935,100.25787689999561,space,0.7614135000039823,100.19396569998935,None,None,None,ms_small,100.97729539999273,101.04077619998134,100.97729539999273,None,D01,1,2021_Apr_22_2030,subsecond_timing,2021.1.2,60.0839854012801,
ms_small,0.882,0.3,False,None,0,24,24,24,101.4909129999869,None,101.77411919998121,101.82429689998389,102.65734869998414,102.7064327999833,space,0.8733479999937117,102.65734869998414,None,103.56024399999296,None,103.56024399999296,103.6236585000006,space,0.7285608999955002,103.56024399999296,None,None,None,ms_small,104.30900979999569,104.37360659998376,104.30900979999569,None,D01,1,2021_Apr_22_2030,subsecond_timing,2021.1.2,60.0839854012801,
ms_small,0.988,0.1,False,None,0,25,25,25,104.8234805999964,None,104.90689159999602,104.95685249997769,105.89008869999088,105.94083769997815,space,0.9490723999915645,105.89008869999088,None,106.85969579999801,None,106.85969579999801,106.92326499999035,space,0.6632463999849278,106.85969579999801,None,None,None,ms_small,107.54248750000261,107.60678989998996,107.54248750000261,None,D01,1,2021_Apr_22_2030,subsecond_timing,2021.1.2,60.0839854012801,
ms_small,0.706,0.2,False,None,0,26,26,26,108.05641479999758,None,108.23957799997879,108.28957819999778,108.9393446999893,108.98966469999868,space,0.8921841999981552,108.9393446999893,None,109.85914249997586,None,109.85914249997586,109.92226729998947,space,0.6750443000055384,109.85914249997586,None,None,None,ms_small,110.55846549998387,110.62236710000434,110.55846549998387,None,D01,1,2021_Apr_22_2030,subsecond_timing,2021.1.2,60.0839854012801,
ms_small,0.918,0.3,False,None,0,27,27,27,111.07065599999623,None,111.33886150000035,111.38903569997638,112.25482949998695,112.3057981999882,space,0.8797576000215486,112.25482949998695,None,113.15874749998329,None,113.15874749998329,113.22198059997754,space,0.7711067000054754,113.15874749998329,None,None,None,ms_small,113.9581804999907,114.0218051999982,113.9581804999907,None,D01,1,2021_Apr_22_2030,subsecond_timing,2021.1.2,60.0839854012801,
ms_small,0.706,0.1,False,None,0,28,28,28,114.47236009998596,None,114.55454429998645,114.60475810000207,115.25507809998817,115.30567879998125,space,0.8511068999941926,115.25507809998817,None,116.12479089997942,None,116.12479089997942,116.18818060000194,space,0.7252240999951027,116.12479089997942,None,None,None,ms_small,116.87221949998639,116.9379643999855,116.87221949998639,None,D01,1,2021_Apr_22_2030,subsecond_timing,2021.1.2,60.0839854012801,
ms_small,0.918,0.1,False,None,0,29,29,29,117.38798689999385,None,117.471255499986,117.52124390000245,118.38790439997683,118.43836800000281,space,0.9195774999971036,118.38790439997683,None,119.34090169999399,None,119.34090169999399,119.40417419999721,space,0.7894536000094377,119.34090169999399,None,None,None,ms_small,120.15724030000274,120.22124369998346,120.15724030000274,None,D01,1,2021_Apr_22_2030,subsecond_timing,2021.1.2,60.0839854012801,
ms_small,0.67,0.2,False,None,0,30,30,30,120.67067349998979,None,120.85402509997948,120.90400559999398,121.52044199997908,121.57068409997737,space,4.837048999994295,121.52044199997908,None,126.38969609999913,None,126.38969609999913,126.45303380000405,space,0.6466142999997828,126.38969609999913,None,None,None,ms_small,127.05674829997588,127.1186831999803,127.05674829997588,None,D01,1,2021_Apr_22_2030,subsecond_timing,2021.1.2,60.0839854012801,
ms_small,0.988,0.1,False,None,0,31,31,31,127.5694348999823,None,127.65287079999689,127.7028289999871,128.63597289999598,128.68684949999442,space,0.8506112000031862,128.63597289999598,None,129.50561239998206,None,129.50561239998206,129.56903729998157,space,0.8482201999868266,129.50561239998206,None,None,None,ms_small,130.38439349998953,130.43577489999007,130.38439349998953,None,D01,1,2021_Apr_22_2030,subsecond_timing,2021.1.2,60.0839854012801,
ms_small,0.953,0.2,False,None,0,32,32,32,130.8855660999834,None,131.06884209997952,131.11881949999952,132.01862859999528,132.069219099998,space,0.8447188999853097,132.01862859999528,None,132.8884824999841,None,132.8884824999841,132.95186539998394,space,0.9589056000113487,132.8884824999841,None,None,None,ms_small,133.8713009999774,133.93412789999275,133.8713009999774,None,D01,1,2021_Apr_22_2030,subsecond_timing,2021.1.2,60.0839854012801,
ms_small,0.776,0.1,False,None,0,33,33,33,134.38485289999517,None,134.46834369999124,134.51815829999396,135.23467239999445,135.28512919999775,space,0.8368303999886848,135.23467239999445,None,136.10443479998503,None,136.10443479998503,136.16762809999636,space,0.6111871000030078,136.10443479998503,None,None,None,ms_small,136.7372398999869,136.80096659998526,136.7372398999869,None,D01,1,2021_Apr_22_2030,subsecond_timing,2021.1.2,60.0839854012801,
ms_small,0.847,0.1,False,None,0,34,34,34,137.25103899999522,None,137.33395759999985,137.38451740000164,138.1668559999962,138.2171590999933,space,0.793292799993651,138.1668559999962,None,138.98726199998055,None,138.98726199998055,139.05077539998456,space,0.6162960000219755,138.98726199998055,None,None,None,ms_small,139.63528200000292,139.70067009999184,139.63528200000292,None,D01,1,2021_Apr_22_2030,subsecond_timing,2021.1.2,60.0839854012801,
ms_small,0.741,0.2,False,None,0,35,35,35,140.1506715999858,None,140.3338720999891,140.38379469999927,141.06693489997997,141.11739349999698,space,0.8426547000126448,141.06693489997997,None,141.9365284999949,None,141.9365284999949,142.00043279997772,space,0.6745923999988008,141.9365284999949,None,None,None,ms_small,142.6487507999991,142.70008889999008,142.6487507999991,None,D01,1,2021_Apr_22_2030,subsecond_timing,2021.1.2,60.0839854012801,
ms_small,0.812,0.1,False,None,0,36,36,36,143.14999079998233,None,143.23259169998346,143.28332739998586,144.0329880999925,144.08401269998285,space,0.78712630001246,144.0329880999925,None,144.8529150999966,None,144.8529150999966,144.91635029998724,space,0.5443080000113696,144.8529150999966,None,None,None,ms_small,145.41865119998693,145.48299619997852,145.41865119998693,None,D01,1,2021_Apr_22_2030,subsecond_timing,2021.1.2,60.0839854012801,
ms_small,0.882,0.1,False,None,0,37,37,37,145.93295899999794,None,146.01617540000007,146.06609509998816,146.89933359998395,146.9497291999869,space,0.780002899991814,146.89933359998395,None,147.7023430999834,None,147.7023430999834,147.76582529998268,space,0.7738719999906607,147.7023430999834,None,None,None,ms_small,148.5013176999928,148.56560229999013,148.5013176999928,None,D01,1,2021_Apr_22_2030,subsecond_timing,2021.1.2,60.0839854012801,
ms_small,1.024,0.3,False,None,0,38,38,38,149.0157055000018,None,149.29900529998122,149.34886119997827,150.31542639998952,150.36602639997727,space,0.8313865000091027,150.31542639998952,None,151.16848429999663,None,151.16848429999663,151.23188700000173,space,0.9423972000076901,151.16848429999663,None,None,None,ms_small,152.13436169998022,152.1981947000022,152.13436169998022,None,D01,1,2021_Apr_22_2030,subsecond_timing,2021.1.2,60.0839854012801,
ms_small,0.847,0.2,False,None,0,39,39,39,152.64835489998222,None,152.83162689997698,152.8815667000017,153.6647915999929,153.7152602999995,space,0.8083593999908771,153.6647915999929,None,154.501153899997,None,154.501153899997,154.5645570999768,space,0.9795080999901984,154.501153899997,None,None,None,ms_small,155.4986282000027,155.5635599999805,155.4986282000027,None,D01,1,2021_Apr_22_2030,subsecond_timing,2021.1.2,60.0839854012801,
ms_small,0.918,0.2,False,None,0,40,40,40,156.0143072999781,None,156.19785029999912,156.24749599999632,157.1131262999843,157.16307889999007,space,0.9511534000048414,157.1131262999843,None,158.08406799999648,None,158.08406799999648,158.14735739998287,space,0.7738601000164635,158.08406799999648,None,None,None,ms_small,158.89485240000067,158.94681189997937,158.89485240000067,None,D01,1,2021_Apr_22_2030,subsecond_timing,2021.1.2,60.0839854012801,
ms_small,0.953,0.1,False,None,0,41,41,41,159.3970594999846,None,159.4804697999789,159.53038569999626,160.43031639998662,160.48080829999526,space,0.9175275999878068,160.43031639998662,None,161.3668311999936,None,161.3668311999936,161.43012609999278,space,0.8853636000130791,161.3668311999936,None,None,None,ms_small,162.28235929997754,162.3459030999802,162.28235929997754,None,D01,1,2021_Apr_22_2030,subsecond_timing,2021.1.2,60.0839854012801,
ms_small,0.882,0.3,False,None,0,42,42,42,162.79662259999895,None,163.07974789998843,163.1297501999943,163.96295980000286,164.01337829997647,space,0.8910632000188343,163.96295980000286,None,164.88280719998875,None,164.88280719998875,164.94618119997904,space,0.7932221000082791,164.88280719998875,None,None,None,ms_small,165.71037279997836,165.76213899999857,165.71037279997836,None,D01,1,2021_Apr_22_2030,subsecond_timing,2021.1.2,60.0839854012801,
ms_small,0.741,0.2,False,None,0,43,43,43,166.21254009997938,None,166.3959614999767,166.44586989999516,167.12915429999703,167.17969279998215,space,0.9401644000026863,167.12915429999703,None,168.0978854999994,None,168.0978854999994,168.14744079997763,space,0.7012852000189014,168.0978854999994,None,None,None,ms_small,168.83196179999504,168.89527489998727,168.83196179999504,None,D01,1,2021_Apr_22_2030,subsecond_timing,2021.1.2,60.0839854012801,
ms_small,0.67,0.3,False,None,0,44,44,44,169.34529060000204,None,169.62858679998317,169.67862419999437,170.29468679998536,170.34471340000164,space,0.9252725999976974,170.29468679998536,None,171.24821409999277,None,171.24821409999277,171.31157540000277,space,0.7573350000020582,171.24821409999277,None,None,None,ms_small,172.0306236000033,172.09470669997972,172.0306236000033,None,D01,1,2021_Apr_22_2030,subsecond_timing,2021.1.2,60.0839854012801,
ms_small,0.812,0.2,False,None,0,45,45,45,172.54551419999916,None,172.7280017999874,172.77786099998048,173.52789259998826,173.5772222999949,space,0.9011187999858521,173.52789259998826,None,174.44764319999376,None,174.44764319999376,174.51107519998914,space,0.7228322000009939,174.44764319999376,None,None,None,ms_small,175.19709370000055,175.26076439997996,175.19709370000055,None,D01,1,2021_Apr_22_2030,subsecond_timing,2021.1.2,60.0839854012801,
ms_small,1.024,0.3,False,None,0,46,46,46,175.7108223999967,None,175.99354149997816,176.04356499999994,177.01068969999324,177.06143549998524,space,0.7950382999842986,177.01068969999324,None,177.8303836999985,None,177.8303836999985,177.8938383999921,space,0.7826582999841776,177.8303836999985,None,None,None,ms_small,178.6447283999878,178.7101498999982,178.6447283999878,None,D01,1,2021_Apr_22_2030,subsecond_timing,2021.1.2,60.0839854012801,
ms_small,0.706,0.3,False,None,0,47,47,47,179.16016339999624,None,179.4429870999884,179.49333399999887,180.14340429997537,180.19392189997598,space,4.815003499999875,180.14340429997537,None,184.97872859999188,None,184.97872859999188,185.0425557999988,space,0.6988536000135355,184.97872859999188,None,None,None,ms_small,185.70772159998887,185.7590199999977,185.70772159998887,None,D01,1,2021_Apr_22_2030,subsecond_timing,2021.1.2,60.0839854012801,
ms_small,0.988,0.2,False,None,0,48,48,48,186.20893769999384,None,186.39211659997818,186.4421325000003,187.37522889999673,187.42489269998623,space,0.9704048999992665,187.37522889999673,None,188.37856849998934,None,188.37856849998934,188.44196679999004,space,0.968387700006133,188.37856849998934,None,None,None,ms_small,189.3776901999954,189.44161819998408,189.3776901999954,None,D01,1,2021_Apr_22_2030,subsecond_timing,2021.1.2,60.0839854012801,
ms_small,0.776,0.1,False,None,0,49,49,49,189.89150849997532,None,189.97440449998248,190.02489549998427,190.74146419999306,190.79329459997825,space,0.7578374999866355,190.74146419999306,None,191.52792939997744,None,191.52792939997744,191.5914793999982,space,0.7299420000053942,191.52792939997744,None,None,None,ms_small,192.2764438999875,192.34121029998641,192.2764438999875,None,D01,1,2021_Apr_22_2030,subsecond_timing,2021.1.2,60.0839854012801,
ms_small,0.988,0.1,False,None,0,50,50,50,192.79112899999018,None,192.87440919998335,192.92443779998575,193.85712309999508,193.90739680000115,space,0.683972900005756,193.85712309999508,None,194.56074019998778,None,194.56074019998778,194.62421989999712,space,0.7633166000014171,194.56074019998778,None,None,None,ms_small,195.34457009998732,195.40716519998387,195.34457009998732,None,D01,1,2021_Apr_22_2030,subsecond_timing,2021.1.2,60.0839854012801,
ms_small,0.706,0.3,False,None,0,51,51,51,195.8572893999808,None,196.14063660000102,196.19051019998733,196.84042399999453,196.89123209999525,space,0.6861191000207327,196.84042399999453,None,197.56007369997678,None,197.56007369997678,197.623717999988,space,0.48624820000259206,197.56007369997678,None,None,None,ms_small,198.07637139997678,198.14015920000384,198.07637139997678,None,D01,1,2021_Apr_22_2030,subsecond_timing,2021.1.2,60.0839854012801,
ms_small,0.953,0.2,False,None,0,52,52,52,198.59004260000074,None,198.77393419999862,198.83937299999525,199.72325359997922,199.77386999997543,space,0.7601619999913964,199.72325359997922,None,200.50970309998957,None,200.50970309998957,200.57321709999815,space,1.2129354000207968,200.50970309998957,None,None,None,ms_small,201.74183829998947,201.80611889998545,201.74183829998947,None,D01,1,2021_Apr_22_2030,subsecond_timing,2021.1.2,60.0839854012801,
ms_small,0.847,0.2,False,None,0,53,53,53,202.25557379997917,None,202.43925480000325,202.48923730000388,203.2894052999909,203.33977089999826,space,1.3474798999959603,203.2894052999909,None,204.65869129999192,None,204.65869129999192,204.72222349999356,space,0.584047800017288,204.65869129999192,None,None,None,ms_small,205.27482019999297,205.33888529997785,205.27482019999297,None,D01,1,2021_Apr_22_2030,subsecond_timing,2021.1.2,60.0839854012801,
ms_small,0.918,0.3,False,None,0,54,54,54,205.7886268000002,None,206.07204719999572,206.1220476999879,206.98862910000025,207.03895170000033,space,0.8178460999915842,206.98862910000025,None,207.82513349998044,None,207.82513349998044,207.8884689999977,space,0.8321996000013314,207.82513349998044,None,None,None,ms_small,208.69067319997703,208.75489079998806,208.69067319997703,None,D01,1,2021_Apr_22_2030,subsecond_timing,2021.1.2,60.0839854012801,
ms_small,0.741,0.1,False,None,0,55,55,55,209.20474249997642,None,209.2880200999789,209.33803620000253,210.0213554999791,210.07185419998132,space,0.9913241000031121,210.0213554999791,None,211.04113649998908,None,211.04113649998908,211.10453199999756,space,0.5970193000102881,211.04113649998908,None,None,None,ms_small,211.65682259999448,211.72128389999853,211.65682259999448,None,D01,1,2021_Apr_22_2030,subsecond_timing,2021.1.2,60.0839854012801,
ms_small,0.67,0.1,False,None,0,56,56,56,212.17097259999719,None,212.25433629998588,212.30449290000251,212.9207890999969,212.97135939999134,space,0.8976012000057381,212.9207890999969,None,213.84147719998145,None,213.84147719998145,213.9041317999945,space,0.6526279000099748,213.84147719998145,None,None,None,ms_small,214.52330159998382,214.5871788999939,214.52330159998382,None,D01,1,2021_Apr_22_2030,subsecond_timing,2021.1.2,60.0839854012801,
ms_small,0.776,0.2,False,None,0,57,57,57,215.03712659998564,None,215.22046439998667,215.27041909997934,215.98650030000135,216.03649139998015,space,0.7642505999829154,215.98650030000135,None,216.77352069999324,None,216.77352069999324,216.83690939997905,space,0.7974357999919448,216.77352069999324,None,None,None,ms_small,217.58961110000382,217.65317989999312,217.58961110000382,None,D01,1,2021_Apr_22_2030,subsecond_timing,2021.1.2,60.0839854012801,
ms_small,0.882,0.1,False,None,0,58,58,58,218.10687109999708,None,218.19048150000162,218.25114789998042,219.0698257999902,219.1198347999889,space,0.7081835999852046,219.0698257999902,None,219.80611949999002,None,219.80611949999002,219.86965169999166,space,0.664008100022329,219.80611949999002,None,None,None,ms_small,220.4891150999756,220.55225639999844,220.4891150999756,None,D01,1,2021_Apr_22_2030,subsecond_timing,2021.1.2,60.0839854012801,
ms_small,0.812,0.2,False,None,0,59,59,59,221.00275279997732,None,221.18612939998275,221.23600509998505,221.9856913999829,222.0360270999954,space,0.8159144000092056,221.9856913999829,None,222.8236652999767,None,222.8236652999767,222.88511780000408,space,0.7725161999987904,222.8236652999767,None,None,None,ms_small,223.62144210000406,223.6854156999907,223.62144210000406,None,D01,1,2021_Apr_22_2030,subsecond_timing,2021.1.2,60.0839854012801,
ms_small,1.024,0.2,False,None,0,60,60,60,224.1355254999944,None,224.31881269998848,224.36877729999833,225.3353405999951,225.3856947000022,space,0.7419216000125743,225.3353405999951,None,226.1050014999928,None,226.1050014999928,226.16855339999893,space,0.7720579000015277,226.1050014999928,None,None,None,ms_small,226.90384250000352,226.968323899986,226.90384250000352,None,D01,1,2021_Apr_22_2030,subsecond_timing,2021.1.2,60.0839854012801,
ms_small,0.847,0.3,False,None,0,61,61,61,227.41821669999626,None,227.7013578999904,227.7514185999753,228.55087350000395,228.60056229998008,space,0.7718142999801785,228.55087350000395,None,229.35418169997865,None,229.35418169997865,229.41777329999604,space,0.7398860999965109,229.35418169997865,None,None,None,ms_small,230.12052519997815,230.18425829999615,230.12052519997815,None,D01,1,2021_Apr_22_2030,subsecond_timing,2021.1.2,60.0839854012801,
ms_small,0.67,0.1,False,None,0,62,62,62,230.63430089998292,None,230.71765979999327,230.76814479997847,231.38408479999634,231.43455169998924,space,0.7784848999872338,231.38408479999634,None,232.18707299997914,None,232.18707299997914,232.2508744999941,space,0.5853517999930773,232.18707299997914,None,None,None,ms_small,232.80339190000086,232.86720189999323,232.80339190000086,None,D01,1,2021_Apr_22_2030,subsecond_timing,2021.1.2,60.0839854012801,
ms_small,0.988,0.3,False,None,0,63,63,63,233.31720729998779,None,233.60057529999176,233.65054979998968,234.5835038999794,234.63402389999828,space,0.5436471999855712,234.5835038999794,None,235.15336430000025,None,235.15336430000025,235.21684529999038,space,0.6142956999829039,235.15336430000025,None,None,None,ms_small,235.78657919997931,235.8501860999968,235.78657919997931,None,D01,1,2021_Apr_22_2030,subsecond_timing,2021.1.2,60.0839854012801,
ms_small,0.812,0.1,False,None,0,64,64,64,236.30005979997804,None,236.38321319999523,236.43321309998282,237.18326029999298,237.23391999999876,space,0.341107699990971,237.18326029999298,None,237.55315890000202,None,237.55315890000202,237.61601430000155,space,0.6475187999894843,237.55315890000202,None,None,None,ms_small,238.21945129998494,238.28302529998473,238.21945129998494,None,D01,1,2021_Apr_22_2030,subsecond_timing,2021.1.2,60.0839854012801,
ms_small,0.882,0.3,False,None,0,65,65,65,238.7333204000024,None,239.01613039997756,239.06624369998462,239.89899669997976,239.94912750000367,space,0.9502920000231825,239.89899669997976,None,240.86880509997718,None,240.86880509997718,240.93253910000203,space,0.821459099999629,240.86880509997718,None,None,None,ms_small,241.71834549997584,241.78241990000242,241.71834549997584,None,D01,1,2021_Apr_22_2030,subsecond_timing,2021.1.2,60.0839854012801,
ms_small,0.918,0.1,False,None,0,66,66,66,242.23205439999583,None,242.31570629999624,242.36568940000143,243.23161469999468,243.28311349998694,space,0.9791289999848232,243.23161469999468,None,244.23526249997667,None,244.23526249997667,244.29868799998076,space,0.7413038999948185,244.23526249997667,None,None,None,ms_small,245.00064379998366,245.06492079998134,245.00064379998366,None,D01,1,2021_Apr_22_2030,subsecond_timing,2021.1.2,60.0839854012801,
ms_small,1.024,0.1,False,None,0,67,67,67,245.5151318999997,None,245.59779069997603,245.64825859997654,246.615018099983,246.66632469999604,space,0.8603296999935992,246.615018099983,None,247.50098489999073,None,247.50098489999073,247.56470339998486,space,0.7463761999970302,247.50098489999073,None,None,None,ms_small,248.26671070000157,248.3311859999958,248.26671070000157,None,D01,1,2021_Apr_22_2030,subsecond_timing,2021.1.2,60.0839854012801,
ms_small,0.776,0.2,False,None,0,68,68,68,248.78108639997663,None,248.96364699999685,249.01435250000213,249.7310540000035,249.78165209997678,space,0.7414512000104878,249.7310540000035,None,250.5008089999901,None,250.5008089999901,250.56402940000407,space,0.6566395999980159,250.5008089999901,None,None,None,ms_small,251.19547949999105,251.24688169997535,251.19547949999105,None,D01,1,2021_Apr_22_2030,subsecond_timing,2021.1.2,60.0839854012801,
ms_small,0.953,0.1,False,None,0,69,69,69,251.6972165000043,None,251.78063609998208,251.83054349999293,252.73040859997855,252.7808654999826,space,0.7481394000060391,252.73040859997855,None,253.50088009997853,None,253.50088009997853,253.56337479999638,space,0.8044490999891423,253.50088009997853,None,None,None,ms_small,254.33262249999098,254.39661019999767,254.33262249999098,None,D01,1,2021_Apr_22_2030,subsecond_timing,2021.1.2,60.0839854012801,
ms_small,0.706,0.1,False,None,0,70,70,70,254.84664340000018,None,254.92994149998412,254.9799315999844,255.62983550000354,255.68054479997954,space,0.8300088999967556,255.62983550000354,None,256.4830798000039,None,256.4830798000039,256.5463841999881,space,0.6359109999903012,256.4830798000039,None,None,None,ms_small,257.1491337000043,257.212772400002,257.1491337000043,None,D01,1,2021_Apr_22_2030,subsecond_timing,2021.1.2,60.0839854012801,
ms_small,0.741,0.3,False,None,0,71,71,71,257.6627838999848,None,257.9461365999887,257.99598829998286,258.67934139998397,258.7299998999806,space,0.8171076999860816,258.67934139998397,None,259.5155662999896,None,259.5155662999896,259.5792607999756,space,0.5888222000212409,259.5155662999896,None,None,None,ms_small,260.131361799984,260.19580159999896,260.131361799984,None,D01,1,2021_Apr_22_2030,subsecond_timing,2021.1.2,60.0839854012801,
ms_small,0.882,0.2,False,None,0,72,72,72,260.64569409997785,None,260.8288762999873,260.87893409997923,261.7120541999757,261.76292819998343,space,0.8156985999958124,261.7120541999757,None,262.5485333999968,None,262.5485333999968,262.61196189999464,space,0.7644382000144105,262.5485333999968,None,None,None,ms_small,263.33144979999634,263.39500639998005,263.33144979999634,None,D01,1,2021_Apr_22_2030,subsecond_timing,2021.1.2,60.0839854012801,
ms_small,0.918,0.3,False,None,0,73,73,73,263.8447784000018,None,264.1283129999938,264.17826359998435,265.0447650999995,265.0951795000001,space,0.8371616999793332,265.0447650999995,None,265.9142138999887,None,265.9142138999887,265.97791139999754,space,0.7578208999766503,265.9142138999887,None,None,None,ms_small,266.6966844999988,266.76112559999456,266.6966844999988,None,D01,1,2021_Apr_22_2030,subsecond_timing,2021.1.2,60.0839854012801,
ms_small,0.988,0.2,False,None,0,74,74,74,267.21136999997543,None,267.39453219997813,267.44443429997773,268.37683839999954,268.42729219998,space,1.0268871000153013,268.37683839999954,None,269.4305991999863,None,269.4305991999863,269.4934696999844,space,0.9265579999773763,269.4305991999863,None,None,None,ms_small,270.3798564999888,270.44377009998425,270.3798564999888,None,D01,1,2021_Apr_22_2030,subsecond_timing,2021.1.2,60.0839854012801,
ms_small,0.67,0.1,False,None,0,75,75,75,270.893624999997,None,270.97709609998856,271.0270651000028,271.6436216000002,271.6943600999948,space,0.714223300019512,271.6436216000002,None,272.38021089998074,None,272.38021089998074,272.44348519999767,space,0.6650106000015512,272.38021089998074,None,None,None,ms_small,273.0629601999826,273.1267677999858,273.0629601999826,None,D01,1,2021_Apr_22_2030,subsecond_timing,2021.1.2,60.0839854012801,
ms_small,0.776,0.3,False,None,0,76,76,76,273.57649149998906,None,273.8594124999945,273.9098742999777,274.62637220000033,274.6771428999782,space,0.8582278999965638,274.62637220000033,None,275.51254080000217,None,275.51254080000217,275.5610084999935,space,0.7059797999972943,275.51254080000217,None,None,None,ms_small,276.2455483999802,276.3093290999823,276.2455483999802,None,D01,1,2021_Apr_22_2030,subsecond_timing,2021.1.2,60.0839854012801,
ms_small,0.847,0.2,False,None,0,77,77,77,276.7594134999963,None,276.9427226999833,276.99271589997807,277.7759362999932,277.82638159999624,space,0.7305066999979317,277.7759362999932,None,278.52918289997615,None,278.52918289997615,278.592998099979,space,0.7851618999848142,278.52918289997615,None,None,None,ms_small,279.34490769999684,279.4089942999999,279.34490769999684,None,D01,1,2021_Apr_22_2030,subsecond_timing,2021.1.2,60.0839854012801,
ms_small,1.024,0.2,False,None,0,78,78,78,279.85868479998317,None,280.0420996999892,280.09202209999785,281.058469599986,281.108837399981,space,0.8061157999909483,281.058469599986,None,281.8952292999893,None,281.8952292999893,281.9584591999883,space,0.7448153999866918,281.8952292999893,None,None,None,ms_small,282.66091989999404,282.72481620000326,282.66091989999404,None,D01,1,2021_Apr_22_2030,subsecond_timing,2021.1.2,60.0839854012801,
ms_small,0.812,0.3,False,None,0,79,79,79,283.1741470999841,None,283.45814989999053,283.50811899997643,284.2577655999921,284.3072126999905,space,0.8244829000032041,284.2577655999921,None,285.11085109997657,None,285.11085109997657,285.1744674999791,space,0.7245229999825824,285.11085109997657,None,None,None,ms_small,285.86030449997634,285.92430919999606,285.86030449997634,None,D01,1,2021_Apr_22_2030,subsecond_timing,2021.1.2,60.0839854012801,
ms_small,0.953,0.1,False,None,0,80,80,80,286.37435249998816,None,286.4577242999803,286.5068109999993,287.40752229999634,287.4583142999909,space,0.8416033999819774,287.40752229999634,None,288.27729319999344,None,288.27729319999344,288.340713099984,space,0.6967545000079554,288.27729319999344,None,None,None,ms_small,288.9927696999803,289.0571623999858,288.9927696999803,None,D01,1,2021_Apr_22_2030,subsecond_timing,2021.1.2,60.0839854012801,
ms_small,0.706,0.2,False,None,0,81,81,81,289.50706959998934,None,289.6903999999922,289.7403784999915,290.39016280000214,290.44021439997596,space,0.8167165000049863,290.39016280000214,None,291.2265569999872,None,291.2265569999872,291.2901597000018,space,0.5730476999888197,291.2265569999872,None,None,None,ms_small,291.82673089997843,291.89009839997743,291.82673089997843,None,D01,1,2021_Apr_22_2030,subsecond_timing,2021.1.2,60.0839854012801,
ms_small,0.741,0.3,False,None,0,82,82,82,292.3399026999832,None,292.6232439999876,292.6733646999928,293.3562103000004,293.4061321999761,space,0.731262000015704,293.3562103000004,None,294.1095519999799,None,294.1095519999799,294.1729665999883,space,0.5891427999886218,294.1095519999799,None,None,None,ms_small,294.7257458999811,294.78941239998676,294.7257458999811,None,D01,1,2021_Apr_22_2030,subsecond_timing,2021.1.2,60.0839854012801,
ms_small,0.706,0.1,False,None,0,83,83,83,295.23944019997725,None,295.3226960999891,295.3726582999807,296.02258540000184,296.07313899998553,space,0.7867774000042118,296.02258540000184,None,296.8407626999833,None,296.8407626999833,296.90623689998756,space,0.7175093999831006,296.8407626999833,None,None,None,ms_small,297.59103479998885,297.65564029998495,297.59103479998885,None,D01,1,2021_Apr_22_2030,subsecond_timing,2021.1.2,60.0839854012801,
ms_small,0.812,0.2,False,None,0,84,84,84,298.1053990999935,None,298.2889265999838,298.33896059999825,299.088362999988,299.1386563999986,space,0.8002206000091974,299.088362999988,None,299.90821899997536,None,299.90821899997536,299.9717972999788,space,0.7258440000005066,299.90821899997536,None,None,None,ms_small,300.6574454999936,300.72191739999107,300.6574454999936,None,D01,1,2021_Apr_22_2030,subsecond_timing,2021.1.2,60.0839854012801,
ms_small,0.882,0.2,False,None,0,85,85,85,301.17157549998956,None,301.3544508999912,301.4051198999805,302.2382123999996,302.2888862999971,space,0.8971155000035651,302.2382123999996,None,303.15800139997737,None,303.15800139997737,303.2213423999783,space,0.7077590999833774,303.15800139997737,None,None,None,ms_small,303.89094230000046,303.95448709998163,303.89094230000046,None,D01,1,2021_Apr_22_2030,subsecond_timing,2021.1.2,60.0839854012801,
ms_small,0.776,0.1,False,None,0,86,86,86,304.4045516999904,None,304.4877353999764,304.53772319998825,305.2535418999905,305.30414269998437,space,0.722163600003114,305.2535418999905,None,306.0072082999977,None,306.0072082999977,306.0708453999832,space,0.7017745999910403,306.0072082999977,None,None,None,ms_small,306.7406906999822,306.8039430999779,306.7406906999822,None,D01,1,2021_Apr_22_2030,subsecond_timing,2021.1.2,60.0839854012801,
ms_small,0.988,0.3,False,None,0,87,87,87,307.2539418999804,None,307.5371856999991,307.5873029999784,308.5203198999807,308.5709846999962,space,0.8398152000154369,308.5203198999807,None,309.38949109998066,None,309.38949109998066,309.45357479999075,space,0.7001008999941405,309.38949109998066,None,None,None,ms_small,310.1229284000001,310.18664859997807,310.1229284000001,None,D01,1,2021_Apr_22_2030,subsecond_timing,2021.1.2,60.0839854012801,
ms_small,0.67,0.2,False,None,0,88,88,88,310.63648269997793,None,310.81990669999504,310.8699123999977,311.4860783999902,311.5362666999863,space,0.7032728999911342,311.4860783999902,None,312.22282399999676,None,312.22282399999676,312.28655789999175,space,0.5374383000016678,312.22282399999676,None,None,None,ms_small,312.7892991999979,312.8528105999867,312.7892991999979,None,D01,1,2021_Apr_22_2030,subsecond_timing,2021.1.2,60.0839854012801,
ms_small,0.741,0.3,False,None,0,89,89,89,313.30283279999276,None,313.58621189999394,313.6361525999964,314.31930049997754,314.3701998000033,space,0.7268055999884382,314.31930049997754,None,315.07240289999754,None,315.07240289999754,315.1215759999759,space,0.7397303000034299,315.07240289999754,None,None,None,ms_small,315.8387826999824,315.90229080000427,315.8387826999824,None,D01,1,2021_Apr_22_2030,subsecond_timing,2021.1.2,60.0839854012801,
ms_small,0.918,0.1,False,None,0,90,90,90,316.3522643999895,None,316.43562329999986,316.4855342999799,317.35210389998974,317.40230009998777,space,0.7102990999992471,317.35210389998974,None,318.08865429999423,None,318.08865429999423,318.1521005999821,space,0.9576297999883536,318.08865429999423,None,None,None,ms_small,319.0710803999973,319.13502889999654,319.0710803999973,None,D01,1,2021_Apr_22_2030,subsecond_timing,2021.1.2,60.0839854012801,
ms_small,0.847,0.3,False,None,0,91,91,91,319.5850337999873,None,319.8682962000021,319.91829309999594,320.7013850999938,320.7515063000028,space,0.7506694999756292,320.7013850999938,None,321.47142950000125,None,321.47142950000125,321.53484559999197,space,0.8281906000047456,321.47142950000125,None,None,None,ms_small,322.32026290000067,322.38439969997853,322.32026290000067,None,D01,1,2021_Apr_22_2030,subsecond_timing,2021.1.2,60.0839854012801,
ms_small,0.953,0.2,False,None,0,92,92,92,322.83380679998663,None,323.017611999996,323.0677624999953,323.9675276999769,324.01731329999166,space,0.8683082000061404,323.9675276999769,None,324.8700815999764,None,324.8700815999764,324.93414619998657,space,0.8020566999912262,324.8700815999764,None,None,None,ms_small,325.7029622999835,325.7672520999913,325.7029622999835,None,D01,1,2021_Apr_22_2030,subsecond_timing,2021.1.2,60.0839854012801,
ms_small,1.024,0.2,False,None,0,93,93,93,326.2172823000001,None,326.40040600000066,326.4504382000014,327.4160468999762,327.46694579999894,space,0.8394134999834932,327.4160468999762,None,328.28680599998916,None,328.28680599998916,328.350195099978,space,0.8844479999970645,328.28680599998916,None,None,None,ms_small,329.2028608999972,329.26670949999243,329.2028608999972,None,D01,1,2021_Apr_22_2030,subsecond_timing,2021.1.2,60.0839854012801,
ms_small,0.882,0.1,False,None,0,94,94,94,329.7165574999817,None,329.79984089999925,329.84987700000056,330.6828120999853,330.7342413000006,space,0.7675185000116471,330.6828120999853,None,331.46925619998365,None,331.46925619998365,331.5329084999976,space,0.6096869999892078,331.46925619998365,None,None,None,ms_small,332.1019541999849,332.16616249998333,332.1019541999849,None,D01,1,2021_Apr_22_2030,subsecond_timing,2021.1.2,60.0839854012801,
ms_small,0.67,0.2,False,None,0,95,95,95,332.6160369999998,None,332.7993700999941,332.84941679998883,333.46585469998536,333.51664239997626,space,0.6595585999893956,333.46585469998536,None,334.1521926999849,None,334.1521926999849,334.21534629998496,space,0.5899077999929432,334.1521926999849,None,None,None,ms_small,334.76884189998964,334.83234699998866,334.76884189998964,None,D01,1,2021_Apr_22_2030,subsecond_timing,2021.1.2,60.0839854012801,
ms_small,0.918,0.3,False,None,0,96,96,96,335.28186279998044,None,335.5655267999973,335.6153235999809,336.48121840000385,336.53206070000306,space,0.7420711000158917,336.48121840000385,None,337.2519106999971,None,337.2519106999971,337.31519579997985,space,1.0387290999933612,337.2519106999971,None,None,None,ms_small,338.33020419999957,338.3815934000013,338.33020419999957,None,D01,1,2021_Apr_22_2030,subsecond_timing,2021.1.2,60.0839854012801,
ms_small,0.706,0.2,False,None,0,97,97,97,338.83165109998663,None,339.0150684999826,339.0649392999767,339.7147665999946,339.76584579999326,space,0.9074641999904998,339.7147665999946,None,340.651049099979,None,340.651049099979,340.71385249999,space,0.6737963000196032,340.651049099979,None,None,None,ms_small,341.3506330999953,341.41441989998566,341.3506330999953,None,D01,1,2021_Apr_22_2030,subsecond_timing,2021.1.2,60.0839854012801,
ms_small,0.988,0.1,False,None,0,98,98,98,341.86432849999983,None,341.94767199998023,341.9977144000004,342.9308248999878,342.9810704999836,space,0.7747793000016827,342.9308248999878,None,343.7338441000029,None,343.7338441000029,343.7974356999912,space,0.8636332000023685,343.7338441000029,None,None,None,ms_small,344.6165501999785,344.68046039997716,344.6165501999785,None,D01,1,2021_Apr_22_2030,subsecond_timing,2021.1.2,60.0839854012801,
ms_small,0.741,0.3,False,None,0,99,99,99,345.13053999998374,None,345.41425279999385,345.4803106999898,346.14709409998613,346.1973886999767,space,0.9433411000063643,346.14709409998613,None,347.1166716000007,None,347.1166716000007,347.1800708999799,space,0.6740177999890875,347.1166716000007,None,None,None,ms_small,347.81574199997704,347.8799190999998,347.81574199997704,None,D01,1,2021_Apr_22_2030,subsecond_timing,2021.1.2,60.0839854012801,
ms_small,1.024,0.2,False,None,0,100,100,100,348.3299109999789,None,348.51319389999844,348.5632282999868,349.52973479998764,349.58034469999257,space,0.8669043999980204,349.52973479998764,None,350.41591359997983,None,350.41591359997983,350.4795600999787,space,0.8044954999932088,350.41591359997983,None,None,None,ms_small,351.2490108999773,351.3126515999902,351.2490108999773,None,D01,1,2021_Apr_22_2030,subsecond_timing,2021.1.2,60.0839854012801,
ms_small,0.776,0.2,False,None,0,101,101,101,351.7626287000021,None,351.9459442999796,351.99589959997684,352.71243719998165,352.76288239998394,space,0.9391444000066258,352.71243719998165,None,353.6819934999803,None,353.6819934999803,353.745660399989,space,0.7742687000136357,353.6819934999803,None,None,None,ms_small,354.4830715999997,354.54510129999835,354.4830715999997,None,D01,1,2021_Apr_22_2030,subsecond_timing,2021.1.2,60.0839854012801,
ms_small,0.812,0.2,False,None,0,102,102,102,354.99537570000393,None,355.1786450999789,355.2286232000042,355.9784354000003,356.0288473999826,space,0.9413988000014797,355.9784354000003,None,356.94825099999434,None,356.94825099999434,357.01161429999047,space,0.7808562999998685,356.94825099999434,None,None,None,ms_small,357.7601295999775,357.8114810999832,357.7601295999775,None,D01,1,2021_Apr_22_2030,subsecond_timing,2021.1.2,60.0839854012801,
ms_small,0.953,0.2,False,None,0,103,103,103,358.26146429998334,None,358.4449430999812,358.49480079999194,359.3947288999916,359.4455082999775,space,0.9617110000108369,359.3947288999916,None,360.3808114999847,None,360.3808114999847,360.44443919998594,space,0.9977233000099659,360.3808114999847,None,None,None,ms_small,361.395415099978,361.46093549998477,361.395415099978,None,D01,1,2021_Apr_22_2030,subsecond_timing,2021.1.2,60.0839854012801,
ms_small,0.847,0.1,False,None,0,104,104,104,361.9109033999848,None,361.9940394999867,362.0440845999983,362.82722479998483,362.8778519000043,space,0.884213399986038,362.82722479998483,None,363.73034489998827,None,363.73034489998827,363.79381409997586,space,0.6988398999965284,363.73034489998827,None,None,None,ms_small,364.4467713999911,364.510321299982,364.4467713999911,None,D01,1,2021_Apr_22_2030,subsecond_timing,2021.1.2,60.0839854012801,
ms_small,0.706,0.2,False,None,0,105,105,105,364.96020129998215,None,365.14350559999,365.19354009997915,365.84419099998195,365.8927485999884,space,0.7765588999900501,365.84419099998195,None,366.6464882,None,366.6464882,366.7099285000004,space,0.6277084999892395,366.6464882,None,None,None,ms_small,367.295278399979,367.35975959998905,367.295278399979,None,D01,1,2021_Apr_22_2030,subsecond_timing,2021.1.2,60.0839854012801,
ms_small,0.741,0.1,False,None,0,106,106,106,367.8097462999867,None,367.89321079998626,367.9430503999756,368.62623090000125,368.6767484000011,space,0.6823168999981135,368.62623090000125,None,369.3287138000014,None,369.3287138000014,369.39207219998934,space,0.5592803999898024,369.3287138000014,None,None,None,ms_small,369.90958539998974,369.959197499993,369.90958539998974,None,D01,1,2021_Apr_22_2030,subsecond_timing,2021.1.2,60.0839854012801,
ms_small,0.67,0.1,False,None,0,107,107,107,370.4093618999759,None,370.49245180000435,370.5426140999771,371.15899339999305,371.2094301999896,space,0.6922641999844927,371.15899339999305,None,371.8787230000016,None,371.8787230000016,371.94227909998153,space,0.56304189999355,371.8787230000016,None,None,None,ms_small,372.46160069998587,372.5255256999808,372.46160069998587,None,D01,1,2021_Apr_22_2030,subsecond_timing,2021.1.2,60.0839854012801,
ms_small,0.847,0.1,False,None,0,108,108,108,372.97543349998887,None,373.05882310000015,373.10878079998656,373.89162039998337,373.94135929999175,space,0.812809399998514,373.89162039998337,None,374.7284762999916,None,374.7284762999916,374.79191430000355,space,0.9662912999920081,374.7284762999916,None,None,None,ms_small,375.72717679999187,375.791661700001,375.72717679999187,None,D01,1,2021_Apr_22_2030,subsecond_timing,2021.1.2,60.0839854012801,
ms_small,0.812,0.2,False,None,0,109,109,109,376.24128849999397,None,376.42473040000186,376.47483199997805,377.2246476,377.27579489999334,space,0.9166948000201955,377.2246476,None,378.16116019999026,None,378.16116019999026,378.2246149999846,space,0.7270007000188343,378.16116019999026,None,None,None,ms_small,378.90960919999634,378.97430209998856,378.90960919999634,None,D01,1,2021_Apr_22_2030,subsecond_timing,2021.1.2,60.0839854012801,
ms_small,0.776,0.3,False,None,0,110,110,110,379.42419049999444,None,379.7074552999984,379.7574621999811,380.4741013000021,380.52471909997985,space,0.793705600022804,380.4741013000021,None,381.2936775999842,None,381.2936775999842,381.357216000004,space,0.708602200000314,381.2936775999842,None,None,None,ms_small,382.0265683000034,382.0903402999975,382.0265683000034,None,D01,1,2021_Apr_22_2030,subsecond_timing,2021.1.2,60.0839854012801,
ms_small,0.988,0.3,False,None,0,111,111,111,382.54051179997623,None,382.82367579999845,382.8736714999832,383.80687229998875,383.8576502999931,space,0.782057900010841,383.80687229998875,None,384.60986850000336,None,384.60986850000336,384.67338659998495,space,0.7388394000008702,384.60986850000336,None,None,None,ms_small,385.37569819999044,385.4398553999781,385.37569819999044,None,D01,1,2021_Apr_22_2030,subsecond_timing,2021.1.2,60.0839854012801,
ms_small,0.918,0.1,False,None,0,112,112,112,385.8897646999976,None,385.9731374999974,386.02313079999294,386.8895954999898,386.9399754999904,space,0.7786604999855626,386.8895954999898,None,387.6927151999844,None,387.6927151999844,387.7560808999988,space,0.8998960000171792,387.6927151999844,None,None,None,ms_small,388.62339339999016,388.6893738999788,388.62339339999016,None,D01,1,2021_Apr_22_2030,subsecond_timing,2021.1.2,60.0839854012801,
ms_small,0.882,0.1,False,None,0,113,113,113,389.1231267999974,None,389.20597079998697,389.25588299997617,390.0889653999766,390.1393065000011,space,0.8154932000034023,390.0889653999766,None,390.9251941999828,None,390.9251941999828,390.98893829999724,space,0.7968544000177644,390.9251941999828,None,None,None,ms_small,391.74133589997655,391.80545529999654,391.74133589997655,None,D01,1,2021_Apr_22_2030,subsecond_timing,2021.1.2,60.0839854012801,
ms_small,1.024,0.2,False,None,0,114,114,114,392.25444839999545,None,392.43857699999353,392.4885779999895,393.4550376999832,393.5054375999898,space,0.8383447999949567,393.4550376999832,None,394.3245074999868,None,394.3245074999868,394.3732613000029,space,0.8944193000206724,394.3245074999868,None,None,None,ms_small,395.23946270000306,395.30495019999216,395.23946270000306,None,D01,1,2021_Apr_22_2030,subsecond_timing,2021.1.2,60.0839854012801,
ms_small,0.953,0.2,False,None,0,115,115,115,395.7541530999879,None,395.9379793999833,395.9880618999887,396.88771809998434,396.93777799999225,space,0.798001800023485,396.88771809998434,None,397.7073887999868,None,397.7073887999868,397.7710079999815,space,0.8117170999757946,397.7073887999868,None,None,None,ms_small,398.5401959999872,398.60413619998144,398.5401959999872,None,D01,1,2021_Apr_22_2030,subsecond_timing,2021.1.2,60.0839854012801,
ms_small,0.847,0.3,False,None,0,116,116,116,399.05410129998927,None,399.3373239999928,399.3875416999799,400.17052349998266,400.22114439998404,space,0.7493863000127021,400.17052349998266,None,400.9398401999788,None,400.9398401999788,401.0016257999814,space,0.7451369999907911,400.9398401999788,None,None,None,ms_small,401.706861499988,401.77036809999845,401.706861499988,None,D01,1,2021_Apr_22_2030,subsecond_timing,2021.1.2,60.0839854012801,
ms_small,0.882,0.2,False,None,0,117,117,117,402.2202197999868,None,402.4035788999754,402.45368859998416,403.2862613000034,403.3363338999916,space,0.8921200000040699,403.2862613000034,None,404.2065708999871,None,404.2065708999871,404.26993189999484,space,0.8520832000067458,404.2065708999871,None,None,None,ms_small,405.0890245999908,405.15293299997575,405.0890245999908,None,D01,1,2021_Apr_22_2030,subsecond_timing,2021.1.2,60.0839854012801,
ms_small,1.024,0.1,False,None,0,118,118,118,405.60238689999096,None,405.68631439999444,405.7361806999834,406.7025247999991,406.75284149998333,space,0.7802367999975104,406.7025247999991,None,407.5058761999826,None,407.5058761999826,407.5693826999923,space,0.896766399993794,407.5058761999826,None,None,None,ms_small,408.42099909999524,408.4857123999973,408.42099909999524,None,D01,1,2021_Apr_22_2030,subsecond_timing,2021.1.2,60.0839854012801,
ms_small,0.706,0.2,False,None,0,119,119,119,408.9364019999921,None,409.11902359998203,409.16890129999956,409.81899079997675,409.86976069997763,space,0.6436569000070449,409.81899079997675,None,410.48862729998655,None,410.48862729998655,410.55205299999216,space,0.5921723000064958,410.48862729998655,None,None,None,ms_small,411.1049753999978,411.1686369999952,411.1049753999978,None,D01,1,2021_Apr_22_2030,subsecond_timing,2021.1.2,60.0839854012801,
ms_small,0.918,0.1,False,None,0,120,120,120,411.6179121999885,None,411.70174689998385,411.7518174999859,412.618361300003,412.6690869999875,space,0.7039213000098243,412.618361300003,None,413.3546398000035,None,413.3546398000035,413.41827909997664,space,0.8294417999859434,413.3546398000035,None,None,None,ms_small,414.21664649999,414.2680485000019,414.21664649999,None,D01,1,2021_Apr_22_2030,subsecond_timing,2021.1.2,60.0839854012801,
ms_small,0.776,0.1,False,None,0,121,121,121,414.71740759999375,None,414.80124909998267,414.85132539999904,415.5679239000019,415.6188673999859,space,0.9502551000041422,415.5679239000019,None,416.53777159997844,None,416.53777159997844,416.6012137999933,space,0.7139710000192281,416.53777159997844,None,None,None,ms_small,417.2708287999849,417.3342052999942,417.2708287999849,None,D01,1,2021_Apr_22_2030,subsecond_timing,2021.1.2,60.0839854012801,
ms_small,0.953,0.3,False,None,0,122,122,122,417.7840759999817,None,418.06800449997536,418.1334205000021,419.017362899991,419.06806140000117,space,0.8172226000169758,419.017362899991,None,419.85386010000366,None,419.85386010000366,419.9170985999808,space,0.8480704999819864,419.85386010000366,None,None,None,ms_small,420.71923809999134,420.78349299999536,420.71923809999134,None,D01,1,2021_Apr_22_2030,subsecond_timing,2021.1.2,60.0839854012801,
ms_small,0.67,0.1,False,None,0,123,123,123,421.23357670000405,None,421.3169813999848,421.3667768999876,421.9832900999754,422.03359289999935,space,0.7758982000232209,421.9832900999754,None,422.78625340000144,None,422.78625340000144,422.8500626999885,space,0.7223520000115968,422.78625340000144,None,None,None,ms_small,423.53565730000264,423.59961549998843,423.53565730000264,None,D01,1,2021_Apr_22_2030,subsecond_timing,2021.1.2,60.0839854012801,
ms_small,0.812,0.2,False,None,0,124,124,124,424.04965249999077,None,424.23300389997894,424.28298769998946,425.0328661999956,425.08305200000177,space,0.813778200012166,425.0328661999956,None,425.8692156999896,None,425.8692156999896,425.93281979998574,space,0.6260777999996208,425.8692156999896,None,None,None,ms_small,426.5191958999785,426.58257679999224,426.5191958999785,None,D01,1,2021_Apr_22_2030,subsecond_timing,2021.1.2,60.0839854012801,
ms_small,0.988,0.2,False,None,0,125,125,125,427.0324847000011,None,427.2152335999999,427.2652102999855,428.1989871999831,428.24989459998324,space,0.7249154000019189,428.1989871999831,None,428.95230389997596,None,428.95230389997596,429.01545899998746,space,0.7109364999923855,428.95230389997596,None,None,None,ms_small,429.6850846000016,429.74875669999165,429.6850846000016,None,D01,1,2021_Apr_22_2030,subsecond_timing,2021.1.2,60.0839854012801,
ms_small,0.741,0.3,False,None,0,126,126,126,430.19857749997755,None,430.481887300004,430.5318074999959,431.21500529997866,431.26588150000316,space,0.7679005000100005,431.21500529997866,None,432.001369399979,None,432.001369399979,432.06494609999936,space,0.7653069000225514,432.001369399979,None,None,None,ms_small,432.79676719999406,432.8484225999855,432.79676719999406,None,D01,1,2021_Apr_22_2030,subsecond_timing,2021.1.2,60.0839854012801,
ms_small,0.67,0.1,False,None,0,127,127,127,433.2980162999884,None,433.3813340999768,433.43150669999886,434.0472376999969,434.0981710999913,space,0.739766899991082,434.0472376999969,None,434.81774790000054,None,434.81774790000054,434.88119089999236,space,0.6799808999930974,434.81774790000054,None,None,None,ms_small,435.51633869999205,435.58085369999753,435.51633869999205,None,D01,1,2021_Apr_22_2030,subsecond_timing,2021.1.2,60.0839854012801,
ms_small,0.776,0.3,False,None,0,128,128,128,436.03090319997864,None,436.31358419999015,436.3639370999881,437.08066969999345,437.13169259999995,space,0.8184430999972392,437.08066969999345,None,437.9337403999816,None,437.9337403999816,437.997183200001,space,0.718105200008722,437.9337403999816,None,None,None,ms_small,438.6824740000011,438.74707749998197,438.6824740000011,None,D01,1,2021_Apr_22_2030,subsecond_timing,2021.1.2,60.0839854012801,
ms_small,0.847,0.1,False,None,0,129,129,129,439.1970013999962,None,439.2803215000022,439.3302676999883,440.11345710000023,440.16427009998006,space,0.8020120999717619,440.11345710000023,None,440.9497426000016,None,440.9497426000016,441.01757719999296,space,0.7087066999811213,440.9497426000016,None,None,None,ms_small,441.6820235999767,441.7465452000033,441.6820235999767,None,D01,1,2021_Apr_22_2030,subsecond_timing,2021.1.2,60.0839854012801,
ms_small,0.812,0.1,False,None,0,130,130,130,442.1963168999937,None,442.2797462999879,442.3295800999913,443.0797251999902,443.1305483999895,space,0.7735798000067007,443.0797251999902,None,443.8828510000021,None,443.8828510000021,443.9462037999765,space,0.630197299993597,443.8828510000021,None,None,None,ms_small,444.53155929999775,444.59578469998087,444.53155929999775,None,D01,1,2021_Apr_22_2030,subsecond_timing,2021.1.2,60.0839854012801,
ms_small,0.882,0.1,False,None,0,131,131,131,445.0456741999951,None,445.1293589999841,445.1792560000031,446.01251420000335,446.06312289999914,space,0.7183147000032477,446.01251420000335,None,446.76542250000057,None,446.76542250000057,446.828929899988,space,0.6631894999882206,446.76542250000057,None,None,None,ms_small,447.4479794999934,447.5120912999846,447.4479794999934,None,D01,1,2021_Apr_22_2030,subsecond_timing,2021.1.2,60.0839854012801,
ms_small,1.024,0.2,False,None,0,132,132,132,447.9622403999965,None,448.1453221999982,448.1954239999759,449.1617458999972,449.21263850000105,space,0.8247252999863122,449.1617458999972,None,450.014837499999,None,450.014837499999,450.0783650999947,space,0.9483196999935899,450.014837499999,None,None,None,ms_small,450.99335549998796,451.0444804999861,450.99335549998796,None,D01,1,2021_Apr_22_2030,subsecond_timing,2021.1.2,60.0839854012801,
ms_small,0.953,0.3,False,None,0,133,133,133,451.49486799997976,None,451.7780658999982,451.82814299999154,452.72802650000085,452.7784971999936,space,0.747911300015403,452.72802650000085,None,453.49763639998855,None,453.49763639998855,453.5613093999855,space,0.7290055000048596,453.49763639998855,None,None,None,ms_small,454.2468450999877,454.31075239999336,454.2468450999877,None,D01,1,2021_Apr_22_2030,subsecond_timing,2021.1.2,60.0839854012801,
ms_small,0.988,0.2,False,None,0,134,134,134,454.7608276999963,None,454.9440837999864,454.99413039998035,455.9272460999782,455.9778931000037,space,0.7716102999984287,455.9272460999782,None,456.7417621999921,None,456.7417621999921,456.7941053999821,space,0.8767361000063829,456.7417621999921,None,None,None,ms_small,457.64635999998427,457.7102508999815,457.64635999998427,None,D01,1,2021_Apr_22_2030,subsecond_timing,2021.1.2,60.0839854012801,
ms_small,0.706,0.1,False,None,0,135,135,135,458.1603875999863,None,458.2435201999906,458.29363770000055,458.9443272999779,458.9929155999853,space,0.709414300014032,458.9443272999779,None,459.67976469997666,None,459.67976469997666,459.7432371999894,space,0.7539606999780517,459.67976469997666,None,None,None,ms_small,460.4630698999972,460.52634209999815,460.4630698999972,None,D01,1,2021_Apr_22_2030,subsecond_timing,2021.1.2,60.0839854012801,
ms_small,0.918,0.1,False,None,0,136,136,136,460.976399999985,None,461.0597848999896,461.10979970000335,461.97611449999386,462.02711259998614,space,0.7342065999982879,461.97611449999386,None,462.72935709997546,None,462.72935709997546,462.7929453999968,space,0.78920639998978,462.72935709997546,None,None,None,ms_small,463.544310199999,463.60934509997605,463.544310199999,None,D01,1,2021_Apr_22_2030,subsecond_timing,2021.1.2,60.0839854012801,
ms_small,0.741,0.1,False,None,0,137,137,137,464.0593333999859,None,464.1425651999889,464.1925798000011,464.8757028999971,464.92643569997745,space,4.073500600003172,464.8757028999971,None,468.9781502999831,None,468.9781502999831,469.04172599999583,space,0.7230272000015248,468.9781502999831,None,None,None,ms_small,469.72716389998095,469.7913645999797,469.72716389998095,None,D01,1,2021_Apr_22_2030,subsecond_timing,2021.1.2,60.0839854012801,
ms_small,0.741,0.3,False,None,0,138,138,138,470.2414433999802,None,470.5245644999959,470.5747025999881,471.2578499999945,471.30804819997866,space,0.9719518999918364,471.2578499999945,None,472.26111839999794,None,472.26111839999794,472.3242801000015,space,0.587079699995229,472.26111839999794,None,None,None,ms_small,472.87668369998573,472.94081749999896,472.87668369998573,None,D01,1,2021_Apr_22_2030,subsecond_timing,2021.1.2,60.0839854012801,
ms_small,0.988,0.2,False,None,0,139,139,139,473.39080470000044,None,473.57409419998294,473.62423089999356,474.5569906999881,474.6078195000009,space,0.8882992999861017,474.5569906999881,None,475.47727489998215,None,475.47727489998215,475.54050089998054,space,0.6652009000245016,475.47727489998215,None,None,None,ms_small,476.17635569997947,476.2402038,476.17635569997947,None,D01,1,2021_Apr_22_2030,subsecond_timing,2021.1.2,60.0839854012801,
ms_small,0.812,0.3,False,None,0,140,140,140,476.6902442999999,None,476.97350809999625,477.02358069998445,477.77331520000007,477.8241233000008,space,0.8544630999967922,477.77331520000007,None,478.6598047000007,None,478.6598047000007,478.72325640000054,space,0.6146827999909874,478.6598047000007,None,None,None,ms_small,479.2928675999865,479.35646699997596,479.2928675999865,None,D01,1,2021_Apr_22_2030,subsecond_timing,2021.1.2,60.0839854012801,
ms_small,0.918,0.2,False,None,0,141,141,141,479.8062931000022,None,479.9897619999829,480.0396958999918,480.9061829999846,480.9570342999941,space,0.8313886999967508,480.9061829999846,None,481.7584152999916,None,481.7584152999916,481.80626429998665,space,0.6986042999778874,481.7584152999916,None,None,None,ms_small,482.474948499992,482.5387591999897,482.474948499992,None,D01,1,2021_Apr_22_2030,subsecond_timing,2021.1.2,60.0839854012801,
ms_small,0.847,0.2,False,None,0,142,142,142,482.9891873000015,None,483.17244899997604,483.2223333999864,484.00568179998663,484.0551507999771,space,0.7263404999976046,484.00568179998663,None,484.7585094999813,None,484.7585094999813,484.8220347999886,space,0.844381799979601,484.7585094999813,None,None,None,ms_small,485.6246235999861,485.68865719999303,485.6246235999861,None,D01,1,2021_Apr_22_2030,subsecond_timing,2021.1.2,60.0839854012801,
ms_small,0.953,0.1,False,None,0,143,143,143,486.13860809998005,None,486.2218501000025,486.27269899999374,487.17180449998705,487.2224937999854,space,0.72515869999188,487.17180449998705,None,487.92488509998657,None,487.92488509998657,487.98822549998295,space,0.6804010999912862,487.92488509998657,None,None,None,ms_small,488.62346609999076,488.6879444999795,488.62346609999076,None,D01,1,2021_Apr_22_2030,subsecond_timing,2021.1.2,60.0839854012801,
ms_small,0.776,0.3,False,None,0,144,144,144,489.1380195999809,None,489.4212522000016,489.47131799999624,490.1876833999995,490.2377365999855,space,0.8339609999966342,490.1876833999995,None,491.0409485999844,None,491.0409485999844,491.10445829998935,space,0.7561725999985356,491.0409485999844,None,None,None,ms_small,491.8238264999818,491.88736470000003,491.8238264999818,None,D01,1,2021_Apr_22_2030,subsecond_timing,2021.1.2,60.0839854012801,
ms_small,0.706,0.3,False,None,0,145,145,145,492.3373501999886,None,492.6206939999829,492.66996489997837,493.32062079999014,493.37148139998317,space,0.7772752000018954,493.32062079999014,None,494.123448999977,None,494.123448999977,494.18707559999893,space,0.7479478999739513,494.123448999977,None,None,None,ms_small,494.889634399995,494.95350959998905,494.889634399995,None,D01,1,2021_Apr_22_2030,subsecond_timing,2021.1.2,60.0839854012801,
ms_small,1.024,0.1,False,None,0,146,146,146,495.40309389997856,None,495.48630059999414,495.53692419998697,496.5034291999764,496.5534642999992,space,0.9322130000218749,496.5034291999764,None,497.45641230000183,None,497.45641230000183,497.51992669998435,space,1.0044911000004504,497.45641230000183,None,None,None,ms_small,498.48878949999926,498.5528395999863,498.48878949999926,None,D01,1,2021_Apr_22_2030,subsecond_timing,2021.1.2,60.0839854012801,
ms_small,0.882,0.2,False,None,0,147,147,147,499.00285829999484,None,499.1862727999978,499.23616319999564,500.06924689997686,500.11970859998837,space,0.8555672000220511,500.06924689997686,None,500.9556368999765,None,500.9556368999765,501.01549530000193,space,0.7771198000118602,500.9556368999765,None,None,None,ms_small,501.75556949997554,501.81913829999394,501.75556949997554,None,D01,1,2021_Apr_22_2030,subsecond_timing,2021.1.2,60.0839854012801,
ms_small,0.67,0.3,False,None,0,148,148,148,502.26860129999113,None,502.55239349999465,502.60228709998773,503.2188765000028,503.26972779998323,space,0.7265759999863803,503.2188765000028,None,503.97197079999023,None,503.97197079999023,504.0352945999766,space,0.5826981000136584,503.97197079999023,None,None,None,ms_small,504.5863526999892,504.65185080000083,504.5863526999892,None,D01,1,2021_Apr_22_2030,subsecond_timing,2021.1.2,60.0839854012801,
ms_small,0.67,0.3,False,None,0,149,149,149,505.101769699977,None,505.3851997999882,505.4349683999899,506.05160929998965,506.10233470000094,space,0.7982240999990609,506.05160929998965,None,506.86959200000274,None,506.86959200000274,506.9347427999892,space,0.73939890001202,506.86959200000274,None,None,None,ms_small,507.6376425999915,507.7011749999947,507.6376425999915,None,D01,1,2021_Apr_22_2030,subsecond_timing,2021.1.2,60.0839854012801,
ms_small,0.741,0.3,False,None,0,150,150,150,508.151303199993,None,508.43449419998797,508.4845060999796,509.1679780999839,509.21846319999895,space,0.9399990000238176,509.1679780999839,None,510.1374491000024,None,510.1374491000024,510.2007741999987,space,0.6888177000219002,510.1374491000024,None,None,None,ms_small,510.8535064999887,510.9173914999992,510.8535064999887,None,D01,1,2021_Apr_22_2030,subsecond_timing,2021.1.2,60.0839854012801,
ms_small,0.918,0.1,False,None,0,151,151,151,511.3670082000026,None,511.4507945999794,511.5007039999764,512.3672789999982,512.4182498999871,space,0.8584116999991238,512.3672789999982,None,513.2535649999918,None,513.2535649999918,513.317031899991,space,0.7310712999897078,513.2535649999918,None,None,None,ms_small,514.0027478999982,514.0667135999829,514.0027478999982,None,D01,1,2021_Apr_22_2030,subsecond_timing,2021.1.2,60.0839854012801,
ms_small,0.706,0.3,False,None,0,152,152,152,514.5167662999884,None,514.7995336999884,514.8499987999967,515.4998820999754,515.5505331000022,space,0.8875232000136748,515.4998820999754,None,516.4196584000019,None,516.4196584000019,516.4831242999935,space,0.7060186000016984,516.4196584000019,None,None,None,ms_small,517.1523710999754,517.2164112000028,517.1523710999754,None,D01,1,2021_Apr_22_2030,subsecond_timing,2021.1.2,60.0839854012801,
ms_small,0.988,0.2,False,None,0,153,153,153,517.6662484999979,None,517.8495105999755,517.8994896999793,518.8326378999918,518.8832414999779,space,0.7835391999979038,518.8326378999918,None,519.6359655999986,None,519.6359655999986,519.6994218000036,space,0.8732776000106242,519.6359655999986,None,None,None,ms_small,520.5353732999938,520.598983599979,520.5353732999938,None,D01,1,2021_Apr_22_2030,subsecond_timing,2021.1.2,60.0839854012801,
ms_small,0.847,0.2,False,None,0,154,154,154,521.0488706000033,None,521.2322443999874,521.2823473000026,522.0655030999915,522.1161554999999,space,0.7647120999754407,522.0655030999915,None,522.851603499992,None,522.851603499992,522.9007444999879,space,0.746822399989469,522.851603499992,None,None,None,ms_small,523.6181879999931,523.6815462999803,523.6181879999931,None,D01,1,2021_Apr_22_2030,subsecond_timing,2021.1.2,60.0839854012801,
ms_small,0.776,0.3,False,None,0,155,155,155,524.1316706999787,None,524.4150335000013,524.4650581000024,525.181640099996,525.2325289,space,0.8652810000057798,525.181640099996,None,526.0680981999903,None,526.0680981999903,526.1312147999997,space,0.8591058000165503,526.0680981999903,None,None,None,ms_small,526.9512476999953,527.0145017000032,526.9512476999953,None,D01,1,2021_Apr_22_2030,subsecond_timing,2021.1.2,60.0839854012801,
ms_small,0.882,0.2,False,None,0,156,156,156,527.464433199988,None,527.6477600999933,527.6976828000043,528.5303167999955,528.5808886000013,space,0.8592314000125043,528.5303167999955,None,529.4176113999856,None,529.4176113999856,529.4808345999918,space,0.825194700009888,529.4176113999856,None,None,None,ms_small,530.2670516999788,530.3305975999974,530.2670516999788,None,D01,1,2021_Apr_22_2030,subsecond_timing,2021.1.2,60.0839854012801,
ms_small,0.812,0.1,False,None,0,157,157,157,530.7801709999912,None,530.8637220999808,530.9137874000007,531.6637413999997,531.7143865999824,space,0.7634627999796066,531.6637413999997,None,532.4500800999813,None,532.4500800999813,532.5136543999834,space,0.5743854000174906,532.4500800999813,None,None,None,ms_small,533.0614524999983,533.1132321999758,533.0614524999983,None,D01,1,2021_Apr_22_2030,subsecond_timing,2021.1.2,60.0839854012801,
ms_small,1.024,0.1,False,None,0,158,158,158,533.5634920999873,None,533.6465504999796,533.6965110999881,534.6632497999817,534.7139004999772,space,0.8208144000091124,534.6632497999817,None,535.5161103999999,None,535.5161103999999,535.5795352999994,space,0.8920651999942493,535.5161103999999,None,None,None,ms_small,536.4329389999912,536.4957393999794,536.4329389999912,None,D01,1,2021_Apr_22_2030,subsecond_timing,2021.1.2,60.0839854012801,
ms_small,0.953,0.2,False,None,0,159,159,159,536.9461192000017,None,537.1294419999758,537.1794577999972,538.0791969999846,538.1294412999996,space,0.986397799977567,538.0791969999846,None,539.098840199993,None,539.098840199993,539.1623043,space,0.5318783999828156,539.098840199993,None,None,None,ms_small,539.6649679999973,539.7288520000002,539.6649679999973,None,D01,1,2021_Apr_22_2030,subsecond_timing,2021.1.2,60.0839854012801,
ms_small,0.812,0.2,False,None,0,160,160,160,540.178834899998,None,540.3621513999824,540.412241699989,541.1618642999965,541.212243499991,space,0.7420332999899983,541.1618642999965,None,541.9319232999987,None,541.9319232999987,541.9953508999897,space,0.8182043999840971,541.9319232999987,None,None,None,ms_small,542.7806983999908,542.8450291999907,542.7806983999908,None,D01,1,2021_Apr_22_2030,subsecond_timing,2021.1.2,60.0839854012801,
ms_small,0.67,0.1,False,None,0,161,161,161,543.2951072999858,None,543.377599999978,543.4278023999941,544.0448259999976,544.095430699992,space,0.6368761000048835,544.0448259999976,None,544.714739899995,None,544.714739899995,544.7780558999802,space,0.5525580999965314,544.714739899995,None,None,None,ms_small,545.2975289000024,545.3613164999988,545.2975289000024,None,D01,1,2021_Apr_22_2030,subsecond_timing,2021.1.2,60.0839854012801,
ms_small,0.953,0.1,False,None,0,162,162,162,545.8110505999939,None,545.894383899984,545.9444981999986,546.843672499992,546.8942112999794,space,0.9256393999967258,546.843672499992,None,547.797318900004,None,547.797318900004,547.8609999999753,space,0.7154465999919921,547.797318900004,None,None,None,ms_small,548.5466144999955,548.61056619999,548.5466144999955,None,D01,1,2021_Apr_22_2030,subsecond_timing,2021.1.2,60.0839854012801,
ms_small,0.882,0.3,False,None,0,163,163,163,549.0602319999889,None,549.3438743999868,549.3940212999878,550.226244599995,550.2766779999947,space,0.7235558000102174,550.226244599995,None,550.9801625999971,None,550.9801625999971,551.0435395999812,space,0.7748122000193689,550.9801625999971,None,None,None,ms_small,551.779755399999,551.8432712999929,551.779755399999,None,D01,1,2021_Apr_22_2030,subsecond_timing,2021.1.2,60.0839854012801,
ms_small,0.988,0.1,False,None,0,164,164,164,552.2933658999973,None,552.3766994999896,552.4261837999802,553.3597904999915,553.4103186999855,space,0.84446619998198,553.3597904999915,None,554.2295768999902,None,554.2295768999902,554.2931690999831,space,0.9548760000034235,554.2295768999902,None,None,None,ms_small,555.2122364999959,555.2759455999767,555.2122364999959,None,D01,1,2021_Apr_22_2030,subsecond_timing,2021.1.2,60.0839854012801,
ms_small,0.706,0.1,False,None,0,165,165,165,555.7260616999993,None,555.8104186999844,555.8754179999814,556.509373399982,556.5600359999808,space,0.7902522000076715,556.509373399982,None,557.3292190999782,None,557.3292190999782,557.3923812999856,space,0.6081174999999348,557.3292190999782,None,None,None,ms_small,557.9620512999827,558.025616799976,557.9620512999827,None,D01,1,2021_Apr_22_2030,subsecond_timing,2021.1.2,60.0839854012801,
ms_small,1.024,0.3,False,None,0,166,166,166,558.4755520999897,None,558.7588363999967,558.8088182999927,559.7752928999835,559.8258510000014,space,0.7664494999917224,559.7752928999835,None,560.5616699999955,None,560.5616699999955,560.6251174999925,space,0.8591415999981109,560.5616699999955,None,None,None,ms_small,561.4490830999857,561.509965699981,561.4490830999857,None,D01,1,2021_Apr_22_2030,subsecond_timing,2021.1.2,60.0839854012801,
ms_small,0.847,0.3,False,None,0,167,167,167,561.9582650999946,None,562.2415298999986,562.2915289999801,563.0746480999805,563.1250314999779,space,0.8771007000177633,563.0746480999805,None,563.9779734999756,None,563.9779734999756,564.0411544999806,space,0.743398899998283,563.9779734999756,None,None,None,ms_small,564.7441243999929,564.8077192999772,564.7441243999929,None,D01,1,2021_Apr_22_2030,subsecond_timing,2021.1.2,60.0839854012801,
ms_small,0.741,0.3,False,None,0,168,168,168,565.2576421999838,None,565.5409559999825,565.5909940999991,566.2741554999957,566.3247224999941,space,0.8070690000022296,566.2741554999957,None,567.1104078999779,None,567.1104078999779,567.1738995999913,space,0.6908484000014141,567.1104078999779,None,None,None,ms_small,567.825912500004,567.8905989999766,567.825912500004,None,D01,1,2021_Apr_22_2030,subsecond_timing,2021.1.2,60.0839854012801,
ms_small,0.918,0.2,False,None,0,169,169,169,568.3404331999773,None,568.5236874999828,568.5738176000013,569.4404734999989,569.4921270999766,space,0.8406839999952354,569.4404734999989,None,570.3100036999967,None,570.3100036999967,570.3734020999982,space,0.7258229000144638,570.3100036999967,None,None,None,ms_small,571.0591682999802,571.1233437999908,571.0591682999802,None,D01,1,2021_Apr_22_2030,subsecond_timing,2021.1.2,60.0839854012801,
ms_small,0.776,0.1,False,None,0,170,170,170,571.573227099987,None,571.6564862999949,571.7064769999997,572.423037999979,572.4738651999796,space,0.8405392999993637,572.423037999979,None,573.2928515999811,None,573.2928515999811,573.3561972999887,space,0.6826004000031389,573.2928515999811,None,None,None,ms_small,574.0082805999846,574.0722919999971,574.0082805999846,None,D01,1,2021_Apr_22_2030,subsecond_timing,2021.1.2,60.0839854012801,
ms_small,0.882,0.3,False,None,0,171,171,171,574.5226129999792,None,574.8058438999869,574.8558201999986,575.6892247999785,575.7402471999812,space,0.8260441000165883,575.6892247999785,None,576.5419730999856,None,576.5419730999856,576.6056800999795,space,0.7004004000045825,576.5419730999856,None,None,None,ms_small,577.2748948999797,577.3388158000016,577.2748948999797,None,D01,1,2021_Apr_22_2030,subsecond_timing,2021.1.2,60.0839854012801,
ms_small,0.741,0.1,False,None,0,172,172,172,577.7889064999763,None,577.8720440999896,577.9220272999955,578.6048394999816,578.6546773999871,space,0.8525440999947023,578.6048394999816,None,579.491646999988,None,579.491646999988,579.5551511999802,space,0.5164713000121992,579.491646999988,None,None,None,ms_small,580.0415594999795,580.104961199977,580.0415594999795,None,D01,1,2021_Apr_22_2030,subsecond_timing,2021.1.2,60.0839854012801,
ms_small,0.988,0.1,False,None,0,173,173,173,580.5549142999807,None,580.6381968999922,580.6882105999975,581.621367099986,581.6725914999843,space,0.7854953999922145,581.621367099986,None,582.440609799989,None,582.440609799989,582.5046142999781,space,1.5862822000053711,582.440609799989,None,None,None,ms_small,584.0571375,584.1208076999756,584.0571375,None,D01,1,2021_Apr_22_2030,subsecond_timing,2021.1.2,60.0839854012801,
ms_small,0.706,0.2,False,None,0,174,174,174,584.5708814999962,None,584.754220999981,584.8042506999918,585.453268399986,585.5040365000023,space,0.8196966999967117,585.453268399986,None,586.3072858999949,None,586.3072858999949,586.3705841999908,space,0.6377148999890778,586.3072858999949,None,None,None,ms_small,586.9734176999773,587.0369454000029,586.9734176999773,None,D01,1,2021_Apr_22_2030,subsecond_timing,2021.1.2,60.0839854012801,
ms_small,0.918,0.2,False,None,0,175,175,175,587.4870268999948,None,587.669860199996,587.7197816999978,588.5868286999757,588.6372824999853,space,0.8157028999994509,588.5868286999757,None,589.4234438999847,None,589.4234438999847,589.4865746999858,space,0.7728665000176989,589.4234438999847,None,None,None,ms_small,590.2348695999826,590.286437200004,590.2348695999826,None,D01,1,2021_Apr_22_2030,subsecond_timing,2021.1.2,60.0839854012801,
ms_small,0.953,0.2,False,None,0,176,176,176,590.7364944999863,None,590.919830400002,590.970207699982,591.8695229000004,591.9203680999926,space,0.7713261000171769,591.8695229000004,None,592.6720097999787,None,592.6720097999787,592.7358946999884,space,0.7602939000062179,592.6720097999787,None,None,None,ms_small,593.4547929999826,593.5185198999825,593.4547929999826,None,D01,1,2021_Apr_22_2030,subsecond_timing,2021.1.2,60.0839854012801,
ms_small,0.67,0.2,False,None,0,177,177,177,593.96878559998,None,594.1515019999933,594.2061733999872,594.818635899981,594.8687501999957,space,0.8284972999827005,594.818635899981,None,595.6719004999904,None,595.6719004999904,595.7346522999869,space,0.6459854999848176,595.6719004999904,None,None,None,ms_small,596.336874599976,596.401409699989,596.336874599976,None,D01,1,2021_Apr_22_2030,subsecond_timing,2021.1.2,60.0839854012801,
ms_small,0.847,0.3,False,None,0,178,178,178,596.8516152999946,None,597.1353140999854,597.1852792999998,597.9677823999955,598.0183100999857,space,0.7819207000138704,597.9677823999955,None,598.7715934999869,None,598.7715934999869,598.8206283999898,space,0.6102377000206616,598.7715934999869,None,None,None,ms_small,599.4041601999779,599.4681743999827,599.4041601999779,None,D01,1,2021_Apr_22_2030,subsecond_timing,2021.1.2,60.0839854012801,
ms_small,0.776,0.1,False,None,0,179,179,179,599.91816869998,None,600.0015595000004,600.0514614999993,600.7678856999846,600.818489999976,space,0.7850911999994423,600.7678856999846,None,601.5871660999837,None,601.5871660999837,601.6511807999923,space,0.6815424999804236,601.5871660999837,None,None,None,ms_small,602.2870465999877,602.3510110999923,602.2870465999877,None,D01,1,2021_Apr_22_2030,subsecond_timing,2021.1.2,60.0839854012801,
ms_small,0.812,0.1,False,None,0,180,180,180,602.8009365999897,None,602.884401999996,602.9342133000027,603.6838903999887,603.7345168000029,space,0.8092225999862421,603.6838903999887,None,604.5204460999812,None,604.5204460999812,604.5840636999928,space,0.5880344000179321,604.5204460999812,None,None,None,ms_small,605.1369722999807,605.2000489999773,605.1369722999807,None,D01,1,2021_Apr_22_2030,subsecond_timing,2021.1.2,60.0839854012801,
ms_small,1.024,0.2,False,None,0,181,181,181,605.6505814999982,None,605.8344684999902,605.8998735999921,606.8502358999976,606.9011509999982,space,0.6553164999932051,606.8502358999976,None,607.5365260999824,None,607.5365260999824,607.600242799992,space,0.8156383000023197,607.5365260999824,None,None,None,ms_small,608.3858475000015,608.4498496000015,608.3858475000015,None,D01,1,2021_Apr_22_2030,subsecond_timing,2021.1.2,60.0839854012801,
ms_small,0.706,0.3,False,None,0,182,182,182,608.8997887999867,None,609.1827051999862,609.2329448999953,609.8830234999768,609.9332473999821,space,0.6792932999960613,609.8830234999768,None,610.5858737999806,None,610.5858737999806,610.6494156999979,space,0.8060347999853548,610.5858737999806,None,None,None,ms_small,611.4190727999958,611.4826102999796,611.4190727999958,None,D01,1,2021_Apr_22_2030,subsecond_timing,2021.1.2,60.0839854012801,
ms_small,0.988,0.1,False,None,0,183,183,183,611.9325289999833,None,612.015974399983,612.0659606999834,612.9990009999892,613.0489805999969,space,0.7790378000063356,612.9990009999892,None,613.8022081999807,None,613.8022081999807,613.8656429999974,space,0.8352261999971233,613.8022081999807,None,None,None,ms_small,614.6679717999941,614.7319837999821,614.6679717999941,None,D01,1,2021_Apr_22_2030,subsecond_timing,2021.1.2,60.0839854012801,
ms_small,1.024,0.3,False,None,0,184,184,184,615.1816792000027,None,615.4654918999877,615.5152806999977,616.4818787999975,616.5325264999992,space,0.7441026000014972,616.4818787999975,None,617.2516390999954,None,617.2516390999954,617.3151039999793,space,0.7718845000199508,617.2516390999954,None,None,None,ms_small,618.0506056000013,618.1147683000017,618.0506056000013,None,D01,1,2021_Apr_22_2030,subsecond_timing,2021.1.2,60.0839854012801,
ms_small,0.847,0.1,False,None,0,185,185,185,618.5642341999919,None,618.6481078999932,618.6981630999944,619.481180999981,619.531539299991,space,0.7832842000061646,619.481180999981,None,620.2843097999867,None,620.2843097999867,620.3479370999848,space,0.6859332000021823,620.2843097999867,None,None,None,ms_small,621.0071435999998,621.064161199989,621.0071435999998,None,D01,1,2021_Apr_22_2030,subsecond_timing,2021.1.2,60.0839854012801,
ms_small,0.741,0.1,False,None,0,186,186,186,621.5143173999968,None,621.5975163999829,621.647667399986,622.3306949999824,622.3814061000012,space,0.7339866999827791,622.3306949999824,None,623.0835686999781,None,623.0835686999781,623.1472395999881,space,0.8691067999752704,623.0835686999781,None,None,None,ms_small,623.9835523999936,624.0470637999824,623.9835523999936,None,D01,1,2021_Apr_22_2030,subsecond_timing,2021.1.2,60.0839854012801,
ms_small,0.776,0.3,False,None,0,187,187,187,624.4970230000035,None,624.7803154999856,624.8304001999786,625.5468947999761,625.5978037999885,space,0.757775500009302,625.5468947999761,None,626.3332315000007,None,626.3332315000007,626.3967176000006,space,0.601760599995032,626.3332315000007,None,None,None,ms_small,626.965778599988,627.0297853999946,626.965778599988,None,D01,1,2021_Apr_22_2030,subsecond_timing,2021.1.2,60.0839854012801,
ms_small,0.812,0.3,False,None,0,188,188,188,627.4798816999828,None,627.7629580999783,627.8130792999873,628.5630373999884,628.6138014000026,space,0.859212999988813,628.5630373999884,None,629.4483044999943,None,629.4483044999943,629.497292199987,space,0.6835327000007965,629.4483044999943,None,None,None,ms_small,630.1653573999938,630.2292611000012,630.1653573999938,None,D01,1,2021_Apr_22_2030,subsecond_timing,2021.1.2,60.0839854012801,
ms_small,0.918,0.3,False,None,0,189,189,189,630.6792176000017,None,630.9623994999856,631.0123762000003,631.879024599999,631.9299376999843,space,0.7749424999929033,631.879024599999,None,632.6822084999876,None,632.6822084999876,632.7456613999966,space,1.1120395000034478,632.6822084999876,None,None,None,ms_small,633.8148123999999,633.8785463999957,633.8148123999999,None,D01,1,2021_Apr_22_2030,subsecond_timing,2021.1.2,60.0839854012801,
ms_small,0.67,0.1,False,None,0,190,190,190,634.3284021999862,None,634.4115129999991,634.4612289999786,635.0783905999851,635.1292834999913,space,0.6879832999838982,635.0783905999851,None,635.7982364999771,None,635.7982364999771,635.8616765000043,space,0.634365899983095,635.7982364999771,None,None,None,ms_small,636.463723599998,636.5283008999832,636.463723599998,None,D01,1,2021_Apr_22_2030,subsecond_timing,2021.1.2,60.0839854012801,
ms_small,0.882,0.2,False,None,0,191,191,191,636.9781715999998,None,637.1614243999938,637.2114200999786,638.0447509999794,638.0952071999782,space,0.8668541999941226,638.0447509999794,None,638.946955499996,None,638.946955499996,638.9962536999956,space,0.5972494000161532,638.946955499996,None,None,None,ms_small,639.5631098999875,639.6276107000012,639.5631098999875,None,D01,1,2021_Apr_22_2030,subsecond_timing,2021.1.2,60.0839854012801,
ms_small,0.953,0.1,False,None,0,192,192,192,640.0775592999998,None,640.1607660999871,640.2107734000019,641.1101739000005,641.1602252000012,space,0.8210256999882404,641.1101739000005,None,641.9637546000013,None,641.9637546000013,642.0271615999809,space,0.6740927999780979,641.9637546000013,None,None,None,ms_small,642.6631197999814,642.7270533999836,642.6631197999814,None,D01,1,2021_Apr_22_2030,subsecond_timing,2021.1.2,60.0839854012801,
ms_small,0.776,0.1,False,None,0,193,193,193,643.1770547999768,None,643.2603142999869,643.3103652999853,644.026805499976,644.0773989000008,space,0.7996813000063412,644.026805499976,None,644.8465101000038,None,644.8465101000038,644.9100531000004,space,0.6497205999912694,644.8465101000038,None,None,None,ms_small,645.5292860999762,645.5931400999834,645.5292860999762,None,D01,1,2021_Apr_22_2030,subsecond_timing,2021.1.2,60.0839854012801,
ms_small,0.988,0.3,False,None,0,194,194,194,646.0432608999836,None,646.3264957999927,646.3764111999772,647.3097138000012,647.3602741999784,space,0.8428343000123277,647.3097138000012,None,648.1794374999881,None,648.1794374999881,648.2428818999906,space,0.8793972000130452,648.1794374999881,None,None,None,ms_small,649.0778608999972,649.1421704999811,649.0778608999972,None,D01,1,2021_Apr_22_2030,subsecond_timing,2021.1.2,60.0839854012801,
ms_small,0.953,0.1,False,None,0,195,195,195,649.5924336999888,None,649.675636400003,649.7257893999922,650.6255769999989,650.6762056000007,space,0.753643900010502,650.6255769999989,None,651.4120348999859,None,651.4120348999859,651.459627299977,space,0.6531651000259444,651.4120348999859,None,None,None,ms_small,652.094307899999,652.1586930999765,652.094307899999,None,D01,1,2021_Apr_22_2030,subsecond_timing,2021.1.2,60.0839854012801,
ms_small,0.741,0.3,False,None,0,196,196,196,652.6079073000001,None,652.8918609999819,652.9418758999964,653.6252343999804,653.6754879999789,space,0.8495506999897771,653.6252343999804,None,654.4947134999966,None,654.4947134999966,654.5579575999873,space,0.5904446999775246,654.4947134999966,None,None,None,ms_small,655.1108117999975,655.1744744000025,655.1108117999975,None,D01,1,2021_Apr_22_2030,subsecond_timing,2021.1.2,60.0839854012801,
ms_small,0.67,0.3,False,None,0,197,197,197,655.6240248999966,None,655.9085380999895,655.9741486999847,656.573561199999,656.6239014999883,space,0.7282515999977477,656.573561199999,None,657.3264650999918,None,657.3264650999918,657.3908175999823,space,0.4625553000078071,657.3264650999918,None,None,None,ms_small,657.8108612999786,657.8742583999992,657.8108612999786,None,D01,1,2021_Apr_22_2030,subsecond_timing,2021.1.2,60.0839854012801,
ms_small,0.847,0.3,False,None,0,198,198,198,658.3237804999808,None,658.6075386999873,658.6576502999815,659.4572730999789,659.5077128999983,space,0.7830042999994475,659.4572730999789,None,660.2606167999911,None,660.2606167999911,660.3239434999996,space,0.7944225999817718,660.2606167999911,None,None,None,ms_small,661.0892588999995,661.1406120999891,661.0892588999995,None,D01,1,2021_Apr_22_2030,subsecond_timing,2021.1.2,60.0839854012801,
ms_small,0.882,0.2,False,None,0,199,199,199,661.59038769998,None,661.7736637999769,661.8235407999891,662.6568872999924,662.707735199976,space,0.8968614999903366,662.6568872999924,None,663.5765807999996,None,663.5765807999996,663.6400774999929,space,0.8303254999918863,663.5765807999996,None,None,None,ms_small,664.4259499999753,664.4897315999842,664.4259499999753,None,D01,1,2021_Apr_22_2030,subsecond_timing,2021.1.2,60.0839854012801,
ms_small,0.706,0.3,False,None,0,200,200,200,664.9397601999808,None,665.2229103999853,665.272951299994,665.9230079999834,665.9737793999957,space,0.687612400011858,665.9230079999834,None,666.642649699992,None,666.642649699992,666.7061451999762,space,0.5569381999957841,666.642649699992,None,None,None,ms_small,667.2254697000026,667.2892579000036,667.2254697000026,None,D01,1,2021_Apr_22_2030,subsecond_timing,2021.1.2,60.0839854012801,
ms_small,0.812,0.1,False,None,0,201,201,201,667.7392719999771,None,667.8226336999796,667.8726770999783,668.6225228999974,668.6729009999835,space,0.8260501000040676,668.6225228999974,None,669.4756558999943,None,669.4756558999943,669.5389033999818,space,0.7554307999962475,669.4756558999943,None,None,None,ms_small,670.2586390999786,670.3220096000005,670.2586390999786,None,D01,1,2021_Apr_22_2030,subsecond_timing,2021.1.2,60.0839854012801,
ms_small,1.024,0.2,False,None,0,202,202,202,670.7717864000006,None,670.9553771999781,671.0053505999967,671.9719326999912,672.0225653999951,space,0.7832831999985501,671.9719326999912,None,672.774685899989,None,672.774685899989,672.8383410999959,space,0.9883311000012327,672.774685899989,None,None,None,ms_small,673.7909970999754,673.8547320999787,673.7909970999754,None,D01,1,2021_Apr_22_2030,subsecond_timing,2021.1.2,60.0839854012801,
ms_small,0.918,0.1,False,None,0,203,203,203,674.3049269999901,None,674.3881101000006,674.4381165999803,675.3042353999917,675.3543635999958,space,0.8905054000206292,675.3042353999917,None,676.2243495000002,None,676.2243495000002,676.2878255999822,space,0.8422845999884885,676.2243495000002,None,None,None,ms_small,677.0902786999941,677.1541271999886,677.0902786999941,None,D01,1,2021_Apr_22_2030,subsecond_timing,2021.1.2,60.0839854012801,
ms_small,0.776,0.2,False,None,0,204,204,204,677.6039746000024,None,677.7875932999887,677.8373931999959,678.5539943999902,678.6046360000037,space,0.833750100020552,678.5539943999902,None,679.4071984999755,None,679.4071984999755,679.4706060999888,space,0.7966165000107139,679.4071984999755,None,None,None,ms_small,680.2232798999758,680.2869652999798,680.2232798999758,None,D01,1,2021_Apr_22_2030,subsecond_timing,2021.1.2,60.0839854012801,
ms_small,0.67,0.1,False,None,0,205,205,205,680.7369690999913,None,680.8203090000025,680.8702206999878,681.4868356999941,681.5372145999863,space,0.6330189000000246,681.4868356999941,None,682.1406198999903,None,682.1406198999903,682.2027738000033,space,0.5354604000167456,682.1406198999903,None,None,None,ms_small,682.7063634999795,682.7698190999799,682.7063634999795,None,D01,1,2021_Apr_22_2030,subsecond_timing,2021.1.2,60.0839854012801,
ms_small,0.706,0.3,False,None,0,206,206,206,683.2199155999988,None,683.5030202999769,683.5530514999991,684.2029903999937,684.2534386999905,space,0.7521825000003446,684.2029903999937,None,684.9894683999883,None,684.9894683999883,685.0530111999833,space,0.7018396999919787,684.9894683999883,None,None,None,ms_small,685.7214631999959,685.7860518999805,685.7214631999959,None,D01,1,2021_Apr_22_2030,subsecond_timing,2021.1.2,60.0839854012801,
ms_small,0.988,0.2,False,None,0,207,207,207,686.2359135999868,None,686.4192820999888,686.4691597999772,687.402460399986,687.4531487999775,space,0.8168673999898601,687.402460399986,None,688.2402408999915,None,688.2402408999915,688.3021659999795,space,0.9283552000124473,688.2402408999915,None,None,None,ms_small,689.1857518999896,689.2514219000004,689.1857518999896,None,D01,1,2021_Apr_22_2030,subsecond_timing,2021.1.2,60.0839854012801,
ms_small,0.847,0.3,False,None,0,208,208,208,689.6852862999949,None,689.9686743999773,690.0185204999871,690.817647799995,690.8684568000026,space,0.6903703999996651,690.817647799995,None,691.5376713000005,None,691.5376713000005,691.6177549999848,space,0.6151276000018697,691.5376713000005,None,None,None,ms_small,692.1857748999901,692.2513325999898,692.1857748999901,None,D01,1,2021_Apr_22_2030,subsecond_timing,2021.1.2,60.0839854012801,
ms_small,0.953,0.2,False,None,0,209,209,209,692.700437499996,None,692.8842645999976,692.9341768999875,693.8345859999827,693.8850723999785,space,0.9530345000093803,693.8345859999827,None,694.8194234999828,None,694.8194234999828,694.8843183999998,space,0.786031700001331,694.8194234999828,None,None,None,ms_small,695.6366942999884,695.7008153999923,695.6366942999884,None,D01,1,2021_Apr_22_2030,subsecond_timing,2021.1.2,60.0839854012801,
ms_small,0.812,0.1,False,None,0,210,210,210,696.1509453000035,None,696.2342810999835,696.2841896000027,697.0341288999771,697.0836591999978,space,0.957869000005303,697.0341288999771,None,698.0204385999823,None,698.0204385999823,698.0839717999916,space,0.6993679000006523,698.0204385999823,None,None,None,ms_small,698.7524043000012,698.8169336999999,698.7524043000012,None,D01,1,2021_Apr_22_2030,subsecond_timing,2021.1.2,60.0839854012801,
ms_small,0.918,0.1,False,None,0,211,211,211,699.2669832999818,None,699.3497894000029,699.3998102999758,700.2667963999847,700.3168731000042,space,0.7244592000206467,700.2667963999847,None,701.0199581999914,None,701.0199581999914,701.0832852000021,space,0.8136276000004727,701.0199581999914,None,None,None,ms_small,701.8529753999901,701.9165464999969,701.8529753999901,None,D01,1,2021_Apr_22_2030,subsecond_timing,2021.1.2,60.0839854012801,
ms_small,0.741,0.3,False,None,0,212,212,212,702.3665068999981,None,702.6497283999925,702.6998473999847,703.3830646999995,703.4336633999774,space,0.9012001999944914,703.3830646999995,None,704.3025748999789,None,704.3025748999789,704.3660238999873,space,0.6366878999979235,704.3025748999789,None,None,None,ms_small,704.968805099983,705.0334226999839,704.968805099983,None,D01,1,2021_Apr_22_2030,subsecond_timing,2021.1.2,60.0839854012801,
ms_small,0.882,0.3,False,None,0,213,213,213,705.482423199981,None,705.7656835999805,705.8158376999781,706.6490526999987,706.6995788999775,space,0.8599324999959208,706.6490526999987,None,707.5351806999824,None,707.5351806999824,707.5987173999893,space,0.6929567999904975,707.5351806999824,None,None,None,ms_small,708.2508721999766,708.3153385999904,708.2508721999766,None,D01,1,2021_Apr_22_2030,subsecond_timing,2021.1.2,60.0839854012801,
ms_small,1.024,0.1,False,None,0,214,214,214,708.7653116000001,None,708.848573700001,708.8986750999757,709.8650363999768,709.9154437999823,space,0.8330609000113327,709.8650363999768,None,710.7183118999819,None,710.7183118999819,710.7810906999803,space,0.8894865000038408,710.7183118999819,None,None,None,ms_small,711.6344347999839,711.6979877999984,711.6344347999839,None,D01,1,2021_Apr_22_2030,subsecond_timing,2021.1.2,60.0839854012801,
ms_small,1.024,0.2,False,None,0,215,215,215,712.1478399999905,None,712.3311812999891,712.3812518999912,713.3476137999969,713.3976693000004,space,0.8753218000056222,713.3476137999969,None,714.2494887999783,None,714.2494887999783,714.3144132999878,space,0.5870003000018187,714.2494887999783,None,None,None,ms_small,714.8671285999881,714.9307102999883,714.8671285999881,None,D01,1,2021_Apr_22_2030,subsecond_timing,2021.1.2,60.0839854012801,
ms_small,0.706,0.2,False,None,0,216,216,216,715.3805516999855,None,715.5638553999888,715.6139114999969,716.2638320999977,716.3146982000035,space,0.8131166000093799,716.2638320999977,None,717.1002966999949,None,717.1002966999949,717.1638128999912,space,0.8010017999913543,717.1002966999949,None,None,None,ms_small,717.9335237999912,717.9969089999795,717.9335237999912,None,D01,1,2021_Apr_22_2030,subsecond_timing,2021.1.2,60.0839854012801,
ms_small,0.882,0.1,False,None,0,217,217,217,718.4469022999983,None,718.5301506999822,718.5801357000018,719.4133595000021,719.4642709000036,space,0.9314530999981798,719.4133595000021,None,720.3664166999806,None,720.3664166999806,720.4156513999915,space,0.8976090999785811,720.3664166999806,None,None,None,ms_small,721.2823387999961,721.3462104999926,721.2823387999961,None,D01,1,2021_Apr_22_2030,subsecond_timing,2021.1.2,60.0839854012801,
ms_small,0.776,0.2,False,None,0,218,218,218,721.7963008999941,None,721.9796552000043,722.0295304000028,722.7460328000016,722.7968963999883,space,0.7316499000007752,722.7460328000016,None,723.4989367999951,None,723.4989367999951,723.5626779999875,space,0.6919949000002816,723.4989367999951,None,None,None,ms_small,724.215180899977,724.2789576999785,724.215180899977,None,D01,1,2021_Apr_22_2030,subsecond_timing,2021.1.2,60.0839854012801,
ms_small,0.847,0.2,False,None,0,219,219,219,724.7289405999763,None,724.9124071999977,724.9624195999932,725.7454595000017,725.7958143999858,space,0.7261222000233829,725.7454595000017,None,726.4986174999794,None,726.4986174999794,726.5621171999956,space,0.9185915999987628,726.4986174999794,None,None,None,ms_small,727.4480734999815,727.5117585999833,727.4480734999815,None,D01,1,2021_Apr_22_2030,subsecond_timing,2021.1.2,60.0839854012801,
ms_small,0.812,0.1,False,None,0,220,220,220,727.9609636999958,None,728.0450294999755,728.0950317999814,728.8449831999897,728.8959970999858,space,0.6465591999876779,728.8449831999897,None,729.514726399997,None,729.514726399997,729.5780762999784,space,0.5884903999976814,729.514726399997,None,None,None,ms_small,730.1302522000042,730.1779663999914,730.1302522000042,None,D01,1,2021_Apr_22_2030,subsecond_timing,2021.1.2,60.0839854012801,
ms_small,0.988,0.1,False,None,0,221,221,221,730.644727499981,None,730.72723639998,730.777892299986,731.7112287999771,731.7615720999893,space,0.7000870000047144,731.7112287999771,None,732.4321712999954,None,732.4321712999954,732.4939056999865,space,0.5746414999885019,732.4321712999954,None,None,None,ms_small,733.0306199999759,733.0941124999954,733.0306199999759,None,D01,1,2021_Apr_22_2030,subsecond_timing,2021.1.2,60.0839854012801,
ms_small,0.918,0.1,False,None,0,222,222,222,733.5442385999777,None,733.6270544999861,733.6773526000034,734.5438230999862,734.594299999997,space,0.6765813000092749,734.5438230999862,None,735.247162899992,None,735.247162899992,735.3103983999754,space,0.7635386000038125,735.247162899992,None,None,None,ms_small,736.0295684000012,736.0936065999849,736.0295684000012,None,D01,1,2021_Apr_22_2030,subsecond_timing,2021.1.2,60.0839854012801,
ms_small,0.67,0.2,False,None,0,223,223,223,736.543581099977,None,736.7269539999834,736.7768856999755,737.393389099976,737.4438177999982,space,0.7418394999986049,737.393389099976,None,738.1625672999944,None,738.1625672999944,738.2113404999836,space,0.7138823999848682,738.1625672999944,None,None,None,ms_small,738.8952193000005,738.959861499985,738.8952193000005,None,D01,1,2021_Apr_22_2030,subsecond_timing,2021.1.2,60.0839854012801,
ms_small,0.741,0.3,False,None,0,224,224,224,739.4096699999936,None,739.6929398999782,739.7429769999871,740.4254006999836,740.4754761999939,space,0.7947554999846034,740.4254006999836,None,741.2457748999877,None,741.2457748999877,741.3094744999835,space,0.7735245000221767,741.2457748999877,None,None,None,ms_small,742.0453664999804,742.1091423000034,742.0453664999804,None,D01,1,2021_Apr_22_2030,subsecond_timing,2021.1.2,60.0839854012801,
