key_resp_start.keys,key_resp_start.rt,key_resp_stop.keys,key_resp_stop.rt,feedback_range,hit,stimulus_range,trials.thisRepN,trials.thisTrialN,trials.thisN,trials.thisIndex,trials.ran,stimulus_duration,onset,feedback,feedback_range_fromfile,participant,session,date,expName,psychopyVersion,OS,frameRate
space,2.802005,space,0.501565,0.3,FALSE,Training,0,0,0,0,1,1,0.3,True,0.3,D02,r1,2021-05-10_15h44.37.572,subsecond_timing_v2,2021.1.2,Win32,60.13229104
space,1.470585,space,0.74707,0.3,TRUE,Training,0,1,1,1,1,0.75,0.1,True,0.3,D02,r1,2021-05-10_15h44.37.572,subsecond_timing_v2,2021.1.2,Win32,60.13229104
space,0.7682,space,0.38733,0.3,TRUE,Training,0,2,2,2,1,0.5,0.1,True,0.3,D02,r1,2021-05-10_15h44.37.572,subsecond_timing_v2,2021.1.2,Win32,60.13229104
space,0.55687,space,0.36988,0.3,TRUE,Training,0,3,3,3,1,0.5,0.2,True,0.3,D02,r1,2021-05-10_15h44.37.572,subsecond_timing_v2,2021.1.2,Win32,60.13229104
space,0.900765,space,0.8003,0.3,TRUE,Training,0,4,4,4,1,0.75,0.2,True,0.3,D02,r1,2021-05-10_15h44.37.572,subsecond_timing_v2,2021.1.2,Win32,60.13229104
space,1.118805,space,0.966475,0.3,TRUE,Training,0,5,5,5,1,1,0.3,True,0.3,D02,r1,2021-05-10_15h44.37.572,subsecond_timing_v2,2021.1.2,Win32,60.13229104
space,1.054215,space,0.616565,,,ms_small,0,6,6,6,1,0.706,0.2,False,None,D02,r1,2021-05-10_15h44.37.572,subsecond_timing_v2,2021.1.2,Win32,60.13229104
space,1.27923,space,0.535415,,,ms_small,0,7,7,7,1,0.812,0.3,False,None,D02,r1,2021-05-10_15h44.37.572,subsecond_timing_v2,2021.1.2,Win32,60.13229104
space,0.880985,space,0.670335,,,ms_small,0,8,8,8,1,0.847,0.1,False,None,D02,r1,2021-05-10_15h44.37.572,subsecond_timing_v2,2021.1.2,Win32,60.13229104
space,0.71862,space,0.554655,,,ms_small,0,9,9,9,1,0.67,0.3,False,None,D02,r1,2021-05-10_15h44.37.572,subsecond_timing_v2,2021.1.2,Win32,60.13229104
space,0.838435,space,0.84376,,,ms_small,0,10,10,10,1,0.988,0.1,False,None,D02,r1,2021-05-10_15h44.37.572,subsecond_timing_v2,2021.1.2,Win32,60.13229104
space,1.271095,space,0.76983,,,ms_small,0,11,11,11,1,0.953,0.1,False,None,D02,r1,2021-05-10_15h44.37.572,subsecond_timing_v2,2021.1.2,Win32,60.13229104
space,1.123505,space,1.01469,,,ms_small,0,12,12,12,1,0.882,0.3,False,None,D02,r1,2021-05-10_15h44.37.572,subsecond_timing_v2,2021.1.2,Win32,60.13229104
space,1.158655,space,1.035405,,,ms_small,0,13,13,13,1,0.918,0.1,False,None,D02,r1,2021-05-10_15h44.37.572,subsecond_timing_v2,2021.1.2,Win32,60.13229104
space,1.10945,space,0.669165,,,ms_small,0,14,14,14,1,0.776,0.2,False,None,D02,r1,2021-05-10_15h44.37.572,subsecond_timing_v2,2021.1.2,Win32,60.13229104
space,0.869045,space,0.817565,,,ms_small,0,15,15,15,1,0.741,0.3,False,None,D02,r1,2021-05-10_15h44.37.572,subsecond_timing_v2,2021.1.2,Win32,60.13229104
space,0.966205,space,1.050295,,,ms_small,0,16,16,16,1,1.024,0.3,False,None,D02,r1,2021-05-10_15h44.37.572,subsecond_timing_v2,2021.1.2,Win32,60.13229104
space,1.054565,space,0.4654,,,ms_small,0,17,17,17,1,0.67,0.1,False,None,D02,r1,2021-05-10_15h44.37.572,subsecond_timing_v2,2021.1.2,Win32,60.13229104
space,0.841845,space,0.78165,,,ms_small,0,18,18,18,1,0.812,0.3,False,None,D02,r1,2021-05-10_15h44.37.572,subsecond_timing_v2,2021.1.2,Win32,60.13229104
space,0.99497,space,0.80679,,,ms_small,0,19,19,19,1,0.953,0.3,False,None,D02,r1,2021-05-10_15h44.37.572,subsecond_timing_v2,2021.1.2,Win32,60.13229104
space,0.93927,space,0.6711,,,ms_small,0,20,20,20,1,0.776,0.1,False,None,D02,r1,2021-05-10_15h44.37.572,subsecond_timing_v2,2021.1.2,Win32,60.13229104
space,0.77897,space,0.616235,,,ms_small,0,21,21,21,1,0.741,0.2,False,None,D02,r1,2021-05-10_15h44.37.572,subsecond_timing_v2,2021.1.2,Win32,60.13229104
space,0.781585,space,0.850355,,,ms_small,0,22,22,22,1,0.847,0.2,False,None,D02,r1,2021-05-10_15h44.37.572,subsecond_timing_v2,2021.1.2,Win32,60.13229104
space,0.755695,space,0.83125,,,ms_small,0,23,23,23,1,1.024,0.1,False,None,D02,r1,2021-05-10_15h44.37.572,subsecond_timing_v2,2021.1.2,Win32,60.13229104
space,0.96987,space,0.76703,,,ms_small,0,24,24,24,1,0.882,0.3,False,None,D02,r1,2021-05-10_15h44.37.572,subsecond_timing_v2,2021.1.2,Win32,60.13229104
space,0.690875,space,0.89325,,,ms_small,0,25,25,25,1,0.988,0.1,False,None,D02,r1,2021-05-10_15h44.37.572,subsecond_timing_v2,2021.1.2,Win32,60.13229104
space,0.846345,space,0.687385,,,ms_small,0,26,26,26,1,0.706,0.2,False,None,D02,r1,2021-05-10_15h44.37.572,subsecond_timing_v2,2021.1.2,Win32,60.13229104
space,1.02592,space,0.97492,,,ms_small,0,27,27,27,1,0.918,0.3,False,None,D02,r1,2021-05-10_15h44.37.572,subsecond_timing_v2,2021.1.2,Win32,60.13229104
space,0.886505,space,0.589065,,,ms_small,0,28,28,28,1,0.706,0.1,False,None,D02,r1,2021-05-10_15h44.37.572,subsecond_timing_v2,2021.1.2,Win32,60.13229104
space,0.75799,space,0.97205,,,ms_small,0,29,29,29,1,0.918,0.1,False,None,D02,r1,2021-05-10_15h44.37.572,subsecond_timing_v2,2021.1.2,Win32,60.13229104
space,0.921105,space,0.73711,,,ms_small,0,30,30,30,1,0.67,0.2,False,None,D02,r1,2021-05-10_15h44.37.572,subsecond_timing_v2,2021.1.2,Win32,60.13229104
space,0.673395,space,1.08915,,,ms_small,0,31,31,31,1,0.988,0.1,False,None,D02,r1,2021-05-10_15h44.37.572,subsecond_timing_v2,2021.1.2,Win32,60.13229104
space,0.855865,space,0.94624,,,ms_small,0,32,32,32,1,0.953,0.2,False,None,D02,r1,2021-05-10_15h44.37.572,subsecond_timing_v2,2021.1.2,Win32,60.13229104
space,1.00875,space,0.750835,,,ms_small,0,33,33,33,1,0.776,0.1,False,None,D02,r1,2021-05-10_15h44.37.572,subsecond_timing_v2,2021.1.2,Win32,60.13229104
space,0.67251,space,0.817545,,,ms_small,0,34,34,34,1,0.847,0.1,False,None,D02,r1,2021-05-10_15h44.37.572,subsecond_timing_v2,2021.1.2,Win32,60.13229104
space,0.776155,space,0.841,,,ms_small,0,35,35,35,1,0.741,0.2,False,None,D02,r1,2021-05-10_15h44.37.572,subsecond_timing_v2,2021.1.2,Win32,60.13229104
space,0.762525,space,0.75114,,,ms_small,0,36,36,36,1,0.812,0.1,False,None,D02,r1,2021-05-10_15h44.37.572,subsecond_timing_v2,2021.1.2,Win32,60.13229104
space,0.81803,space,0.800185,,,ms_small,0,37,37,37,1,0.882,0.1,False,None,D02,r1,2021-05-10_15h44.37.572,subsecond_timing_v2,2021.1.2,Win32,60.13229104
space,1.00952,space,0.74315,,,ms_small,0,38,38,38,1,1.024,0.3,False,None,D02,r1,2021-05-10_15h44.37.572,subsecond_timing_v2,2021.1.2,Win32,60.13229104
space,0.95129,space,0.81831,,,ms_small,0,39,39,39,1,0.847,0.2,False,None,D02,r1,2021-05-10_15h44.37.572,subsecond_timing_v2,2021.1.2,Win32,60.13229104
space,0.754915,space,0.80418,,,ms_small,0,40,40,40,1,0.918,0.2,False,None,D02,r1,2021-05-10_15h44.37.572,subsecond_timing_v2,2021.1.2,Win32,60.13229104
space,0.70438,space,0.935185,,,ms_small,0,41,41,41,1,0.953,0.1,False,None,D02,r1,2021-05-10_15h44.37.572,subsecond_timing_v2,2021.1.2,Win32,60.13229104
space,0.89156,space,0.83818,,,ms_small,0,42,42,42,1,0.882,0.3,False,None,D02,r1,2021-05-10_15h44.37.572,subsecond_timing_v2,2021.1.2,Win32,60.13229104
space,0.668405,space,0.96913,,,ms_small,0,43,43,43,1,0.741,0.2,False,None,D02,r1,2021-05-10_15h44.37.572,subsecond_timing_v2,2021.1.2,Win32,60.13229104
space,0.841385,space,0.71557,,,ms_small,0,44,44,44,1,0.67,0.3,False,None,D02,r1,2021-05-10_15h44.37.572,subsecond_timing_v2,2021.1.2,Win32,60.13229104
space,0.72118,space,0.74803,,,ms_small,0,45,45,45,1,0.812,0.2,False,None,D02,r1,2021-05-10_15h44.37.572,subsecond_timing_v2,2021.1.2,Win32,60.13229104
space,0.811105,space,0.951405,,,ms_small,0,46,46,46,1,1.024,0.3,False,None,D02,r1,2021-05-10_15h44.37.572,subsecond_timing_v2,2021.1.2,Win32,60.13229104
space,0.723085,space,0.751925,,,ms_small,0,47,47,47,1,0.706,0.3,False,None,D02,r1,2021-05-10_15h44.37.572,subsecond_timing_v2,2021.1.2,Win32,60.13229104
space,0.770415,space,1.018385,,,ms_small,0,48,48,48,1,0.988,0.2,False,None,D02,r1,2021-05-10_15h44.37.572,subsecond_timing_v2,2021.1.2,Win32,60.13229104
space,0.84311,space,0.743555,,,ms_small,0,49,49,49,1,0.776,0.1,False,None,D02,r1,2021-05-10_15h44.37.572,subsecond_timing_v2,2021.1.2,Win32,60.13229104
space,0.702945,space,1.037125,,,ms_small,0,50,50,50,1,0.988,0.1,False,None,D02,r1,2021-05-10_15h44.37.572,subsecond_timing_v2,2021.1.2,Win32,60.13229104
space,1.08501,space,0.784585,,,ms_small,0,51,51,51,1,0.706,0.3,False,None,D02,r1,2021-05-10_15h44.37.572,subsecond_timing_v2,2021.1.2,Win32,60.13229104
space,1.03738,space,0.8343,,,ms_small,0,52,52,52,1,0.953,0.2,False,None,D02,r1,2021-05-10_15h44.37.572,subsecond_timing_v2,2021.1.2,Win32,60.13229104
space,0.98841,space,0.80231,,,ms_small,0,53,53,53,1,0.847,0.2,False,None,D02,r1,2021-05-10_15h44.37.572,subsecond_timing_v2,2021.1.2,Win32,60.13229104
space,0.641735,space,1.05329,,,ms_small,0,54,54,54,1,0.918,0.3,False,None,D02,r1,2021-05-10_15h44.37.572,subsecond_timing_v2,2021.1.2,Win32,60.13229104
space,0.77632,space,0.74469,,,ms_small,0,55,55,55,1,0.741,0.1,False,None,D02,r1,2021-05-10_15h44.37.572,subsecond_timing_v2,2021.1.2,Win32,60.13229104
space,0.63825,space,0.76507,,,ms_small,0,56,56,56,1,0.67,0.1,False,None,D02,r1,2021-05-10_15h44.37.572,subsecond_timing_v2,2021.1.2,Win32,60.13229104
space,0.9585,space,0.650915,,,ms_small,0,57,57,57,1,0.776,0.2,False,None,D02,r1,2021-05-10_15h44.37.572,subsecond_timing_v2,2021.1.2,Win32,60.13229104
space,0.69186,space,0.70044,,,ms_small,0,58,58,58,1,0.882,0.1,False,None,D02,r1,2021-05-10_15h44.37.572,subsecond_timing_v2,2021.1.2,Win32,60.13229104
space,0.62158,space,0.80995,,,ms_small,0,59,59,59,1,0.812,0.2,False,None,D02,r1,2021-05-10_15h44.37.572,subsecond_timing_v2,2021.1.2,Win32,60.13229104
space,0.86915,space,0.94089,,,ms_small,0,60,60,60,1,1.024,0.2,False,None,D02,r1,2021-05-10_15h44.37.572,subsecond_timing_v2,2021.1.2,Win32,60.13229104
space,0.886475,space,0.774105,,,ms_small,0,61,61,61,1,0.847,0.3,False,None,D02,r1,2021-05-10_15h44.37.572,subsecond_timing_v2,2021.1.2,Win32,60.13229104
space,0.85481,space,0.83424,,,ms_small,0,62,62,62,1,0.67,0.1,False,None,D02,r1,2021-05-10_15h44.37.572,subsecond_timing_v2,2021.1.2,Win32,60.13229104
space,0.75901,space,0.883605,,,ms_small,0,63,63,63,1,0.988,0.3,False,None,D02,r1,2021-05-10_15h44.37.572,subsecond_timing_v2,2021.1.2,Win32,60.13229104
space,0.669545,space,0.708405,,,ms_small,0,64,64,64,1,0.812,0.1,False,None,D02,r1,2021-05-10_15h44.37.572,subsecond_timing_v2,2021.1.2,Win32,60.13229104
space,0.71213,space,0.864875,,,ms_small,0,65,65,65,1,0.882,0.3,False,None,D02,r1,2021-05-10_15h44.37.572,subsecond_timing_v2,2021.1.2,Win32,60.13229104
space,0.66112,space,0.868625,,,ms_small,0,66,66,66,1,0.918,0.1,False,None,D02,r1,2021-05-10_15h44.37.572,subsecond_timing_v2,2021.1.2,Win32,60.13229104
space,0.63588,space,1.033375,,,ms_small,0,67,67,67,1,1.024,0.1,False,None,D02,r1,2021-05-10_15h44.37.572,subsecond_timing_v2,2021.1.2,Win32,60.13229104
space,0.787575,space,1.051675,,,ms_small,0,68,68,68,1,0.776,0.2,False,None,D02,r1,2021-05-10_15h44.37.572,subsecond_timing_v2,2021.1.2,Win32,60.13229104
space,1.07057,space,0.879585,,,ms_small,0,69,69,69,1,0.953,0.1,False,None,D02,r1,2021-05-10_15h44.37.572,subsecond_timing_v2,2021.1.2,Win32,60.13229104
space,0.854285,space,0.89996,,,ms_small,0,70,70,70,1,0.706,0.1,False,None,D02,r1,2021-05-10_15h44.37.572,subsecond_timing_v2,2021.1.2,Win32,60.13229104
space,0.63693,space,0.783775,,,ms_small,0,71,71,71,1,0.741,0.3,False,None,D02,r1,2021-05-10_15h44.37.572,subsecond_timing_v2,2021.1.2,Win32,60.13229104
space,0.545305,space,0.98336,,,ms_small,0,72,72,72,1,0.882,0.2,False,None,D02,r1,2021-05-10_15h44.37.572,subsecond_timing_v2,2021.1.2,Win32,60.13229104
space,0.573565,space,1.119085,,,ms_small,0,73,73,73,1,0.918,0.3,False,None,D02,r1,2021-05-10_15h44.37.572,subsecond_timing_v2,2021.1.2,Win32,60.13229104
space,0.63594,space,1.211635,,,ms_small,0,74,74,74,1,0.988,0.2,False,None,D02,r1,2021-05-10_15h44.37.572,subsecond_timing_v2,2021.1.2,Win32,60.13229104
space,0.74998,space,0.52663,,,ms_small,0,75,75,75,1,0.67,0.1,False,None,D02,r1,2021-05-10_15h44.37.572,subsecond_timing_v2,2021.1.2,Win32,60.13229104
space,0.87499,space,0.76047,,,ms_small,0,76,76,76,1,0.776,0.3,False,None,D02,r1,2021-05-10_15h44.37.572,subsecond_timing_v2,2021.1.2,Win32,60.13229104
space,1.02031,space,1.055735,,,ms_small,0,77,77,77,1,0.847,0.2,False,None,D02,r1,2021-05-10_15h44.37.572,subsecond_timing_v2,2021.1.2,Win32,60.13229104
space,0.780815,space,1.195785,,,ms_small,0,78,78,78,1,1.024,0.2,False,None,D02,r1,2021-05-10_15h44.37.572,subsecond_timing_v2,2021.1.2,Win32,60.13229104
space,0.90893,space,0.767315,,,ms_small,0,79,79,79,1,0.812,0.3,False,None,D02,r1,2021-05-10_15h44.37.572,subsecond_timing_v2,2021.1.2,Win32,60.13229104
space,0.58397,space,0.954455,,,ms_small,0,80,80,80,1,0.953,0.1,False,None,D02,r1,2021-05-10_15h44.37.572,subsecond_timing_v2,2021.1.2,Win32,60.13229104
space,0.693615,space,0.53343,,,ms_small,0,81,81,81,1,0.706,0.2,False,None,D02,r1,2021-05-10_15h44.37.572,subsecond_timing_v2,2021.1.2,Win32,60.13229104
space,0.90378,space,0.616265,,,ms_small,0,82,82,82,1,0.741,0.3,False,None,D02,r1,2021-05-10_15h44.37.572,subsecond_timing_v2,2021.1.2,Win32,60.13229104
space,0.72573,space,0.709665,,,ms_small,0,83,83,83,1,0.706,0.1,False,None,D02,r1,2021-05-10_15h44.37.572,subsecond_timing_v2,2021.1.2,Win32,60.13229104
space,0.68558,space,0.932605,,,ms_small,0,84,84,84,1,0.812,0.2,False,None,D02,r1,2021-05-10_15h44.37.572,subsecond_timing_v2,2021.1.2,Win32,60.13229104
space,0.984725,space,1.017775,,,ms_small,0,85,85,85,1,0.882,0.2,False,None,D02,r1,2021-05-10_15h44.37.572,subsecond_timing_v2,2021.1.2,Win32,60.13229104
space,3.921755,space,0.80156,,,ms_small,0,86,86,86,1,0.776,0.1,False,None,D02,r1,2021-05-10_15h44.37.572,subsecond_timing_v2,2021.1.2,Win32,60.13229104
space,0.98851,space,0.922465,,,ms_small,0,87,87,87,1,0.988,0.3,False,None,D02,r1,2021-05-10_15h44.37.572,subsecond_timing_v2,2021.1.2,Win32,60.13229104
space,0.85503,space,0.684535,,,ms_small,0,88,88,88,1,0.67,0.2,False,None,D02,r1,2021-05-10_15h44.37.572,subsecond_timing_v2,2021.1.2,Win32,60.13229104
space,0.740985,space,0.750605,,,ms_small,0,89,89,89,1,0.741,0.3,False,None,D02,r1,2021-05-10_15h44.37.572,subsecond_timing_v2,2021.1.2,Win32,60.13229104
space,1.018725,space,1.15202,,,ms_small,0,90,90,90,1,0.918,0.1,False,None,D02,r1,2021-05-10_15h44.37.572,subsecond_timing_v2,2021.1.2,Win32,60.13229104
space,1.10377,space,1.06801,,,ms_small,0,91,91,91,1,0.847,0.3,False,None,D02,r1,2021-05-10_15h44.37.572,subsecond_timing_v2,2021.1.2,Win32,60.13229104
space,0.62799,space,1.136255,,,ms_small,0,92,92,92,1,0.953,0.2,False,None,D02,r1,2021-05-10_15h44.37.572,subsecond_timing_v2,2021.1.2,Win32,60.13229104
space,0.80985,space,1.268235,,,ms_small,0,93,93,93,1,1.024,0.2,False,None,D02,r1,2021-05-10_15h44.37.572,subsecond_timing_v2,2021.1.2,Win32,60.13229104
space,0.722185,space,0.79753,,,ms_small,0,94,94,94,1,0.882,0.1,False,None,D02,r1,2021-05-10_15h44.37.572,subsecond_timing_v2,2021.1.2,Win32,60.13229104
space,0.720165,space,0.56718,,,ms_small,0,95,95,95,1,0.67,0.2,False,None,D02,r1,2021-05-10_15h44.37.572,subsecond_timing_v2,2021.1.2,Win32,60.13229104
space,0.720195,space,0.934125,,,ms_small,0,96,96,96,1,0.918,0.3,False,None,D02,r1,2021-05-10_15h44.37.572,subsecond_timing_v2,2021.1.2,Win32,60.13229104
space,0.675195,space,0.701735,,,ms_small,0,97,97,97,1,0.706,0.2,False,None,D02,r1,2021-05-10_15h44.37.572,subsecond_timing_v2,2021.1.2,Win32,60.13229104
space,0.637045,space,1.050265,,,ms_small,0,98,98,98,1,0.988,0.1,False,None,D02,r1,2021-05-10_15h44.37.572,subsecond_timing_v2,2021.1.2,Win32,60.13229104
space,0.77181,space,0.954275,,,ms_small,0,99,99,99,1,0.741,0.3,False,None,D02,r1,2021-05-10_15h44.37.572,subsecond_timing_v2,2021.1.2,Win32,60.13229104
space,0.63483,space,1.166435,,,ms_small,0,100,100,100,1,1.024,0.2,False,None,D02,r1,2021-05-10_15h44.37.572,subsecond_timing_v2,2021.1.2,Win32,60.13229104
space,0.837745,space,0.825795,,,ms_small,0,101,101,101,1,0.776,0.2,False,None,D02,r1,2021-05-10_15h44.37.572,subsecond_timing_v2,2021.1.2,Win32,60.13229104
space,0.65624,space,1.01768,,,ms_small,0,102,102,102,1,0.812,0.2,False,None,D02,r1,2021-05-10_15h44.37.572,subsecond_timing_v2,2021.1.2,Win32,60.13229104
space,0.60436,space,0.91929,,,ms_small,0,103,103,103,1,0.953,0.2,False,None,D02,r1,2021-05-10_15h44.37.572,subsecond_timing_v2,2021.1.2,Win32,60.13229104
space,0.940445,space,1.001135,,,ms_small,0,104,104,104,1,0.847,0.1,False,None,D02,r1,2021-05-10_15h44.37.572,subsecond_timing_v2,2021.1.2,Win32,60.13229104
space,0.9041,space,0.6623,,,ms_small,0,105,105,105,1,0.706,0.2,False,None,D02,r1,2021-05-10_15h44.37.572,subsecond_timing_v2,2021.1.2,Win32,60.13229104
space,0.602825,space,0.83902,,,ms_small,0,106,106,106,1,0.741,0.1,False,None,D02,r1,2021-05-10_15h44.37.572,subsecond_timing_v2,2021.1.2,Win32,60.13229104
space,0.75503,space,0.74965,,,ms_small,0,107,107,107,1,0.67,0.1,False,None,D02,r1,2021-05-10_15h44.37.572,subsecond_timing_v2,2021.1.2,Win32,60.13229104
space,0.769915,space,0.74119,,,ms_small,0,108,108,108,1,0.847,0.1,False,None,D02,r1,2021-05-10_15h44.37.572,subsecond_timing_v2,2021.1.2,Win32,60.13229104
space,0.7679,space,0.867935,,,ms_small,0,109,109,109,1,0.812,0.2,False,None,D02,r1,2021-05-10_15h44.37.572,subsecond_timing_v2,2021.1.2,Win32,60.13229104
space,0.604045,space,0.88274,,,ms_small,0,110,110,110,1,0.776,0.3,False,None,D02,r1,2021-05-10_15h44.37.572,subsecond_timing_v2,2021.1.2,Win32,60.13229104
space,0.59456,space,1.208345,,,ms_small,0,111,111,111,1,0.988,0.3,False,None,D02,r1,2021-05-10_15h44.37.572,subsecond_timing_v2,2021.1.2,Win32,60.13229104
space,0.86235,space,1.040105,,,ms_small,0,112,112,112,1,0.918,0.1,False,None,D02,r1,2021-05-10_15h44.37.572,subsecond_timing_v2,2021.1.2,Win32,60.13229104
space,1.145705,space,1.03345,,,ms_small,0,113,113,113,1,0.882,0.1,False,None,D02,r1,2021-05-10_15h44.37.572,subsecond_timing_v2,2021.1.2,Win32,60.13229104
space,0.75402,space,1.33772,,,ms_small,0,114,114,114,1,1.024,0.2,False,None,D02,r1,2021-05-10_15h44.37.572,subsecond_timing_v2,2021.1.2,Win32,60.13229104
space,0.89402,space,1.23902,,,ms_small,0,115,115,115,1,0.953,0.2,False,None,D02,r1,2021-05-10_15h44.37.572,subsecond_timing_v2,2021.1.2,Win32,60.13229104
space,0.837635,space,1.002175,,,ms_small,0,116,116,116,1,0.847,0.3,False,None,D02,r1,2021-05-10_15h44.37.572,subsecond_timing_v2,2021.1.2,Win32,60.13229104
space,0.682745,space,1.118275,,,ms_small,0,117,117,117,1,0.882,0.2,False,None,D02,r1,2021-05-10_15h44.37.572,subsecond_timing_v2,2021.1.2,Win32,60.13229104
space,0.68585,space,1.221125,,,ms_small,0,118,118,118,1,1.024,0.1,False,None,D02,r1,2021-05-10_15h44.37.572,subsecond_timing_v2,2021.1.2,Win32,60.13229104
space,0.824695,space,0.613065,,,ms_small,0,119,119,119,1,0.706,0.2,False,None,D02,r1,2021-05-10_15h44.37.572,subsecond_timing_v2,2021.1.2,Win32,60.13229104
space,0.668015,space,1.247735,,,ms_small,0,120,120,120,1,0.918,0.1,False,None,D02,r1,2021-05-10_15h44.37.572,subsecond_timing_v2,2021.1.2,Win32,60.13229104
space,0.6704,space,1.218665,,,ms_small,0,121,121,121,1,0.776,0.1,False,None,D02,r1,2021-05-10_15h44.37.572,subsecond_timing_v2,2021.1.2,Win32,60.13229104
space,1.053815,space,1.38487,,,ms_small,0,122,122,122,1,0.953,0.3,False,None,D02,r1,2021-05-10_15h44.37.572,subsecond_timing_v2,2021.1.2,Win32,60.13229104
space,4.119945,space,0.83201,,,ms_small,0,123,123,123,1,0.67,0.1,False,None,D02,r1,2021-05-10_15h44.37.572,subsecond_timing_v2,2021.1.2,Win32,60.13229104
space,0.871745,space,0.767845,,,ms_small,0,124,124,124,1,0.812,0.2,False,None,D02,r1,2021-05-10_15h44.37.572,subsecond_timing_v2,2021.1.2,Win32,60.13229104
space,0.81839,space,0.933935,,,ms_small,0,125,125,125,1,0.988,0.2,False,None,D02,r1,2021-05-10_15h44.37.572,subsecond_timing_v2,2021.1.2,Win32,60.13229104
space,0.754265,space,0.703695,,,ms_small,0,126,126,126,1,0.741,0.3,False,None,D02,r1,2021-05-10_15h44.37.572,subsecond_timing_v2,2021.1.2,Win32,60.13229104
space,0.850195,space,0.691635,,,ms_small,0,127,127,127,1,0.67,0.1,False,None,D02,r1,2021-05-10_15h44.37.572,subsecond_timing_v2,2021.1.2,Win32,60.13229104
space,0.70552,space,0.691865,,,ms_small,0,128,128,128,1,0.776,0.3,False,None,D02,r1,2021-05-10_15h44.37.572,subsecond_timing_v2,2021.1.2,Win32,60.13229104
space,0.534715,space,0.672725,,,ms_small,0,129,129,129,1,0.847,0.1,False,None,D02,r1,2021-05-10_15h44.37.572,subsecond_timing_v2,2021.1.2,Win32,60.13229104
space,0.713055,space,0.566955,,,ms_small,0,130,130,130,1,0.812,0.1,False,None,D02,r1,2021-05-10_15h44.37.572,subsecond_timing_v2,2021.1.2,Win32,60.13229104
space,0.655385,space,0.871215,,,ms_small,0,131,131,131,1,0.882,0.1,False,None,D02,r1,2021-05-10_15h44.37.572,subsecond_timing_v2,2021.1.2,Win32,60.13229104
space,0.59168,space,1.15671,,,ms_small,0,132,132,132,1,1.024,0.2,False,None,D02,r1,2021-05-10_15h44.37.572,subsecond_timing_v2,2021.1.2,Win32,60.13229104
space,0.64524,space,1.342,,,ms_small,0,133,133,133,1,0.953,0.3,False,None,D02,r1,2021-05-10_15h44.37.572,subsecond_timing_v2,2021.1.2,Win32,60.13229104
space,0.63936,space,1.03481,,,ms_small,0,134,134,134,1,0.988,0.2,False,None,D02,r1,2021-05-10_15h44.37.572,subsecond_timing_v2,2021.1.2,Win32,60.13229104
space,0.75113,space,0.51832,,,ms_small,0,135,135,135,1,0.706,0.1,False,None,D02,r1,2021-05-10_15h44.37.572,subsecond_timing_v2,2021.1.2,Win32,60.13229104
space,0.704615,space,0.86647,,,ms_small,0,136,136,136,1,0.918,0.1,False,None,D02,r1,2021-05-10_15h44.37.572,subsecond_timing_v2,2021.1.2,Win32,60.13229104
space,0.493525,space,0.51829,,,ms_small,0,137,137,137,1,0.741,0.1,False,None,D02,r1,2021-05-10_15h44.37.572,subsecond_timing_v2,2021.1.2,Win32,60.13229104
space,0.714975,space,0.6871,,,ms_small,0,138,138,138,1,0.741,0.3,False,None,D02,r1,2021-05-10_15h44.37.572,subsecond_timing_v2,2021.1.2,Win32,60.13229104
space,0.82939,space,0.59277,,,ms_small,0,139,139,139,1,0.988,0.2,False,None,D02,r1,2021-05-10_15h44.37.572,subsecond_timing_v2,2021.1.2,Win32,60.13229104
space,0.643865,space,0.97112,,,ms_small,0,140,140,140,1,0.812,0.3,False,None,D02,r1,2021-05-10_15h44.37.572,subsecond_timing_v2,2021.1.2,Win32,60.13229104
space,0.826715,space,0.816305,,,ms_small,0,141,141,141,1,0.918,0.2,False,None,D02,r1,2021-05-10_15h44.37.572,subsecond_timing_v2,2021.1.2,Win32,60.13229104
space,0.86885,space,0.766365,,,ms_small,0,142,142,142,1,0.847,0.2,False,None,D02,r1,2021-05-10_15h44.37.572,subsecond_timing_v2,2021.1.2,Win32,60.13229104
space,0.5874,space,1.04015,,,ms_small,0,143,143,143,1,0.953,0.1,False,None,D02,r1,2021-05-10_15h44.37.572,subsecond_timing_v2,2021.1.2,Win32,60.13229104
space,0.62764,space,0.81627,,,ms_small,0,144,144,144,1,0.776,0.3,False,None,D02,r1,2021-05-10_15h44.37.572,subsecond_timing_v2,2021.1.2,Win32,60.13229104
space,0.82155,space,0.617935,,,ms_small,0,145,145,145,1,0.706,0.3,False,None,D02,r1,2021-05-10_15h44.37.572,subsecond_timing_v2,2021.1.2,Win32,60.13229104
space,0.890545,space,0.988515,,,ms_small,0,146,146,146,1,1.024,0.1,False,None,D02,r1,2021-05-10_15h44.37.572,subsecond_timing_v2,2021.1.2,Win32,60.13229104
space,0.71371,space,1.393165,,,ms_small,0,147,147,147,1,0.882,0.2,False,None,D02,r1,2021-05-10_15h44.37.572,subsecond_timing_v2,2021.1.2,Win32,60.13229104
space,0.603865,space,0.654005,,,ms_small,0,148,148,148,1,0.67,0.3,False,None,D02,r1,2021-05-10_15h44.37.572,subsecond_timing_v2,2021.1.2,Win32,60.13229104
space,0.6442,space,0.637005,,,ms_small,0,149,149,149,1,0.67,0.3,False,None,D02,r1,2021-05-10_15h44.37.572,subsecond_timing_v2,2021.1.2,Win32,60.13229104
space,0.63615,space,0.819745,,,ms_small,0,150,150,150,1,0.741,0.3,False,None,D02,r1,2021-05-10_15h44.37.572,subsecond_timing_v2,2021.1.2,Win32,60.13229104
space,0.5809,space,0.762785,,,ms_small,0,151,151,151,1,0.918,0.1,False,None,D02,r1,2021-05-10_15h44.37.572,subsecond_timing_v2,2021.1.2,Win32,60.13229104
space,0.52128,space,0.752295,,,ms_small,0,152,152,152,1,0.706,0.3,False,None,D02,r1,2021-05-10_15h44.37.572,subsecond_timing_v2,2021.1.2,Win32,60.13229104
space,0.68693,space,0.886105,,,ms_small,0,153,153,153,1,0.988,0.2,False,None,D02,r1,2021-05-10_15h44.37.572,subsecond_timing_v2,2021.1.2,Win32,60.13229104
space,0.716835,space,0.92049,,,ms_small,0,154,154,154,1,0.847,0.2,False,None,D02,r1,2021-05-10_15h44.37.572,subsecond_timing_v2,2021.1.2,Win32,60.13229104
space,0.68651,space,0.964825,,,ms_small,0,155,155,155,1,0.776,0.3,False,None,D02,r1,2021-05-10_15h44.37.572,subsecond_timing_v2,2021.1.2,Win32,60.13229104
space,0.68522,space,0.895235,,,ms_small,0,156,156,156,1,0.882,0.2,False,None,D02,r1,2021-05-10_15h44.37.572,subsecond_timing_v2,2021.1.2,Win32,60.13229104
space,0.62113,space,0.881795,,,ms_small,0,157,157,157,1,0.812,0.1,False,None,D02,r1,2021-05-10_15h44.37.572,subsecond_timing_v2,2021.1.2,Win32,60.13229104
space,0.609585,space,1.01838,,,ms_small,0,158,158,158,1,1.024,0.1,False,None,D02,r1,2021-05-10_15h44.37.572,subsecond_timing_v2,2021.1.2,Win32,60.13229104
space,0.60059,space,0.672325,,,ms_small,0,159,159,159,1,0.953,0.2,False,None,D02,r1,2021-05-10_15h44.37.572,subsecond_timing_v2,2021.1.2,Win32,60.13229104
space,0.672145,space,0.684705,,,ms_small,0,160,160,160,1,0.812,0.2,False,None,D02,r1,2021-05-10_15h44.37.572,subsecond_timing_v2,2021.1.2,Win32,60.13229104
space,0.672115,space,0.47882,,,ms_small,0,161,161,161,1,0.67,0.1,False,None,D02,r1,2021-05-10_15h44.37.572,subsecond_timing_v2,2021.1.2,Win32,60.13229104
space,0.646095,space,1.242305,,,ms_small,0,162,162,162,1,0.953,0.1,False,None,D02,r1,2021-05-10_15h44.37.572,subsecond_timing_v2,2021.1.2,Win32,60.13229104
space,0.74024,space,1.11902,,,ms_small,0,163,163,163,1,0.882,0.3,False,None,D02,r1,2021-05-10_15h44.37.572,subsecond_timing_v2,2021.1.2,Win32,60.13229104
space,0.53594,space,1.337895,,,ms_small,0,164,164,164,1,0.988,0.1,False,None,D02,r1,2021-05-10_15h44.37.572,subsecond_timing_v2,2021.1.2,Win32,60.13229104
space,0.68771,space,0.935655,,,ms_small,0,165,165,165,1,0.706,0.1,False,None,D02,r1,2021-05-10_15h44.37.572,subsecond_timing_v2,2021.1.2,Win32,60.13229104
space,0.65026,space,1.288005,,,ms_small,0,166,166,166,1,1.024,0.3,False,None,D02,r1,2021-05-10_15h44.37.572,subsecond_timing_v2,2021.1.2,Win32,60.13229104
space,0.63137,space,0.99918,,,ms_small,0,167,167,167,1,0.847,0.3,False,None,D02,r1,2021-05-10_15h44.37.572,subsecond_timing_v2,2021.1.2,Win32,60.13229104
space,0.72117,space,0.9518,,,ms_small,0,168,168,168,1,0.741,0.3,False,None,D02,r1,2021-05-10_15h44.37.572,subsecond_timing_v2,2021.1.2,Win32,60.13229104
space,0.8224,space,0.980965,,,ms_small,0,169,169,169,1,0.918,0.2,False,None,D02,r1,2021-05-10_15h44.37.572,subsecond_timing_v2,2021.1.2,Win32,60.13229104
space,0.538775,space,1.218515,,,ms_small,0,170,170,170,1,0.776,0.1,False,None,D02,r1,2021-05-10_15h44.37.572,subsecond_timing_v2,2021.1.2,Win32,60.13229104
space,0.66939,space,0.90198,,,ms_small,0,171,171,171,1,0.882,0.3,False,None,D02,r1,2021-05-10_15h44.37.572,subsecond_timing_v2,2021.1.2,Win32,60.13229104
space,0.47843,space,0.45046,,,ms_small,0,172,172,172,1,0.741,0.1,False,None,D02,r1,2021-05-10_15h44.37.572,subsecond_timing_v2,2021.1.2,Win32,60.13229104
space,0.916325,space,0.92315,,,ms_small,0,173,173,173,1,0.988,0.1,False,None,D02,r1,2021-05-10_15h44.37.572,subsecond_timing_v2,2021.1.2,Win32,60.13229104
space,0.703365,space,0.59818,,,ms_small,0,174,174,174,1,0.706,0.2,False,None,D02,r1,2021-05-10_15h44.37.572,subsecond_timing_v2,2021.1.2,Win32,60.13229104
space,0.642665,space,0.86979,,,ms_small,0,175,175,175,1,0.918,0.2,False,None,D02,r1,2021-05-10_15h44.37.572,subsecond_timing_v2,2021.1.2,Win32,60.13229104
space,0.87618,space,0.78491,,,ms_small,0,176,176,176,1,0.953,0.2,False,None,D02,r1,2021-05-10_15h44.37.572,subsecond_timing_v2,2021.1.2,Win32,60.13229104
space,0.64303,space,0.65297,,,ms_small,0,177,177,177,1,0.67,0.2,False,None,D02,r1,2021-05-10_15h44.37.572,subsecond_timing_v2,2021.1.2,Win32,60.13229104
space,0.80134,space,0.890085,,,ms_small,0,178,178,178,1,0.847,0.3,False,None,D02,r1,2021-05-10_15h44.37.572,subsecond_timing_v2,2021.1.2,Win32,60.13229104
space,0.904915,space,0.72391,,,ms_small,0,179,179,179,1,0.776,0.1,False,None,D02,r1,2021-05-10_15h44.37.572,subsecond_timing_v2,2021.1.2,Win32,60.13229104
space,0.7036,space,1.009645,,,ms_small,0,180,180,180,1,0.812,0.1,False,None,D02,r1,2021-05-10_15h44.37.572,subsecond_timing_v2,2021.1.2,Win32,60.13229104
space,1.225245,space,1.051085,,,ms_small,0,181,181,181,1,1.024,0.2,False,None,D02,r1,2021-05-10_15h44.37.572,subsecond_timing_v2,2021.1.2,Win32,60.13229104
space,0.992365,space,0.653455,,,ms_small,0,182,182,182,1,0.706,0.3,False,None,D02,r1,2021-05-10_15h44.37.572,subsecond_timing_v2,2021.1.2,Win32,60.13229104
space,1.0397,space,1.11869,,,ms_small,0,183,183,183,1,0.988,0.1,False,None,D02,r1,2021-05-10_15h44.37.572,subsecond_timing_v2,2021.1.2,Win32,60.13229104
space,1.320045,space,1.08877,,,ms_small,0,184,184,184,1,1.024,0.3,False,None,D02,r1,2021-05-10_15h44.37.572,subsecond_timing_v2,2021.1.2,Win32,60.13229104
space,0.975005,space,0.492655,,,ms_small,0,185,185,185,1,0.847,0.1,False,None,D02,r1,2021-05-10_15h44.37.572,subsecond_timing_v2,2021.1.2,Win32,60.13229104
space,1.000305,space,0.601465,,,ms_small,0,186,186,186,1,0.741,0.1,False,None,D02,r1,2021-05-10_15h44.37.572,subsecond_timing_v2,2021.1.2,Win32,60.13229104
space,0.78793,space,0.78409,,,ms_small,0,187,187,187,1,0.776,0.3,False,None,D02,r1,2021-05-10_15h44.37.572,subsecond_timing_v2,2021.1.2,Win32,60.13229104
space,0.857035,space,0.614765,,,ms_small,0,188,188,188,1,0.812,0.3,False,None,D02,r1,2021-05-10_15h44.37.572,subsecond_timing_v2,2021.1.2,Win32,60.13229104
space,0.834005,space,0.90319,,,ms_small,0,189,189,189,1,0.918,0.3,False,None,D02,r1,2021-05-10_15h44.37.572,subsecond_timing_v2,2021.1.2,Win32,60.13229104
space,0.59063,space,0.508195,,,ms_small,0,190,190,190,1,0.67,0.1,False,None,D02,r1,2021-05-10_15h44.37.572,subsecond_timing_v2,2021.1.2,Win32,60.13229104
space,0.58784,space,1.033715,,,ms_small,0,191,191,191,1,0.882,0.2,False,None,D02,r1,2021-05-10_15h44.37.572,subsecond_timing_v2,2021.1.2,Win32,60.13229104
space,0.676125,space,1.034575,,,ms_small,0,192,192,192,1,0.953,0.1,False,None,D02,r1,2021-05-10_15h44.37.572,subsecond_timing_v2,2021.1.2,Win32,60.13229104
space,0.65745,space,0.803445,,,ms_small,0,193,193,193,1,0.776,0.1,False,None,D02,r1,2021-05-10_15h44.37.572,subsecond_timing_v2,2021.1.2,Win32,60.13229104
space,0.704105,space,1.151735,,,ms_small,0,194,194,194,1,0.988,0.3,False,None,D02,r1,2021-05-10_15h44.37.572,subsecond_timing_v2,2021.1.2,Win32,60.13229104
space,0.63531,space,0.666655,,,ms_small,0,195,195,195,1,0.953,0.1,False,None,D02,r1,2021-05-10_15h44.37.572,subsecond_timing_v2,2021.1.2,Win32,60.13229104
space,0.821055,space,0.626235,,,ms_small,0,196,196,196,1,0.741,0.3,False,None,D02,r1,2021-05-10_15h44.37.572,subsecond_timing_v2,2021.1.2,Win32,60.13229104
space,1.08386,space,0.5852,,,ms_small,0,197,197,197,1,0.67,0.3,False,None,D02,r1,2021-05-10_15h44.37.572,subsecond_timing_v2,2021.1.2,Win32,60.13229104
space,0.8684,space,0.627835,,,ms_small,0,198,198,198,1,0.847,0.3,False,None,D02,r1,2021-05-10_15h44.37.572,subsecond_timing_v2,2021.1.2,Win32,60.13229104
space,0.5709,space,0.6056,,,ms_small,0,199,199,199,1,0.882,0.2,False,None,D02,r1,2021-05-10_15h44.37.572,subsecond_timing_v2,2021.1.2,Win32,60.13229104
space,0.74041,space,0.61772,,,ms_small,0,200,200,200,1,0.706,0.3,False,None,D02,r1,2021-05-10_15h44.37.572,subsecond_timing_v2,2021.1.2,Win32,60.13229104
space,0.670285,space,1.022715,,,ms_small,0,201,201,201,1,0.812,0.1,False,None,D02,r1,2021-05-10_15h44.37.572,subsecond_timing_v2,2021.1.2,Win32,60.13229104
space,0.955495,space,1.132325,,,ms_small,0,202,202,202,1,1.024,0.2,False,None,D02,r1,2021-05-10_15h44.37.572,subsecond_timing_v2,2021.1.2,Win32,60.13229104
space,1.10475,space,0.95735,,,ms_small,0,203,203,203,1,0.918,0.1,False,None,D02,r1,2021-05-10_15h44.37.572,subsecond_timing_v2,2021.1.2,Win32,60.13229104
space,0.88158,space,0.681695,,,ms_small,0,204,204,204,1,0.776,0.2,False,None,D02,r1,2021-05-10_15h44.37.572,subsecond_timing_v2,2021.1.2,Win32,60.13229104
space,0.86107,space,0.51958,,,ms_small,0,205,205,205,1,0.67,0.1,False,None,D02,r1,2021-05-10_15h44.37.572,subsecond_timing_v2,2021.1.2,Win32,60.13229104
space,0.73772,space,0.59331,,,ms_small,0,206,206,206,1,0.706,0.3,False,None,D02,r1,2021-05-10_15h44.37.572,subsecond_timing_v2,2021.1.2,Win32,60.13229104
space,1.054705,space,0.907135,,,ms_small,0,207,207,207,1,0.988,0.2,False,None,D02,r1,2021-05-10_15h44.37.572,subsecond_timing_v2,2021.1.2,Win32,60.13229104
space,0.929155,space,0.800075,,,ms_small,0,208,208,208,1,0.847,0.3,False,None,D02,r1,2021-05-10_15h44.37.572,subsecond_timing_v2,2021.1.2,Win32,60.13229104
space,0.70579,space,0.786475,,,ms_small,0,209,209,209,1,0.953,0.2,False,None,D02,r1,2021-05-10_15h44.37.572,subsecond_timing_v2,2021.1.2,Win32,60.13229104
space,0.7737,space,0.78723,,,ms_small,0,210,210,210,1,0.812,0.1,False,None,D02,r1,2021-05-10_15h44.37.572,subsecond_timing_v2,2021.1.2,Win32,60.13229104
space,0.675065,space,0.916795,,,ms_small,0,211,211,211,1,0.918,0.1,False,None,D02,r1,2021-05-10_15h44.37.572,subsecond_timing_v2,2021.1.2,Win32,60.13229104
space,0.693185,space,0.52571,,,ms_small,0,212,212,212,1,0.741,0.3,False,None,D02,r1,2021-05-10_15h44.37.572,subsecond_timing_v2,2021.1.2,Win32,60.13229104
space,0.54591,space,0.58433,,,ms_small,0,213,213,213,1,0.882,0.3,False,None,D02,r1,2021-05-10_15h44.37.572,subsecond_timing_v2,2021.1.2,Win32,60.13229104
space,0.454885,space,0.97377,,,ms_small,0,214,214,214,1,1.024,0.1,False,None,D02,r1,2021-05-10_15h44.37.572,subsecond_timing_v2,2021.1.2,Win32,60.13229104
space,0.538105,space,0.81096,,,ms_small,0,215,215,215,1,1.024,0.2,False,None,D02,r1,2021-05-10_15h44.37.572,subsecond_timing_v2,2021.1.2,Win32,60.13229104
space,0.80534,space,0.701655,,,ms_small,0,216,216,216,1,0.706,0.2,False,None,D02,r1,2021-05-10_15h44.37.572,subsecond_timing_v2,2021.1.2,Win32,60.13229104
space,0.636965,space,0.99971,,,ms_small,0,217,217,217,1,0.882,0.1,False,None,D02,r1,2021-05-10_15h44.37.572,subsecond_timing_v2,2021.1.2,Win32,60.13229104
space,0.842815,space,0.80507,,,ms_small,0,218,218,218,1,0.776,0.2,False,None,D02,r1,2021-05-10_15h44.37.572,subsecond_timing_v2,2021.1.2,Win32,60.13229104
space,1.010755,space,0.71859,,,ms_small,0,219,219,219,1,0.847,0.2,False,None,D02,r1,2021-05-10_15h44.37.572,subsecond_timing_v2,2021.1.2,Win32,60.13229104
space,0.502675,space,0.83773,,,ms_small,0,220,220,220,1,0.812,0.1,False,None,D02,r1,2021-05-10_15h44.37.572,subsecond_timing_v2,2021.1.2,Win32,60.13229104
space,0.746075,space,0.591395,,,ms_small,0,221,221,221,1,0.988,0.1,False,None,D02,r1,2021-05-10_15h44.37.572,subsecond_timing_v2,2021.1.2,Win32,60.13229104
space,0.80578,space,0.954095,,,ms_small,0,222,222,222,1,0.918,0.1,False,None,D02,r1,2021-05-10_15h44.37.572,subsecond_timing_v2,2021.1.2,Win32,60.13229104
space,0.67197,space,0.561285,,,ms_small,0,223,223,223,1,0.67,0.2,False,None,D02,r1,2021-05-10_15h44.37.572,subsecond_timing_v2,2021.1.2,Win32,60.13229104
space,0.85371,space,0.682455,,,ms_small,0,224,224,224,1,0.741,0.3,False,None,D02,r1,2021-05-10_15h44.37.572,subsecond_timing_v2,2021.1.2,Win32,60.13229104
space,0.694305,space,0.93453,,,ms_small,0,225,225,225,1,0.953,0.1,False,None,D02,r1,2021-05-10_15h44.37.572,subsecond_timing_v2,2021.1.2,Win32,60.13229104
