key_resp_start.keys,key_resp_start.rt,key_resp_stop.keys,key_resp_stop.rt,feedback_range,hit,stimulus_range,trials.thisRepN,trials.thisTrialN,trials.thisN,trials.thisIndex,trials.ran,stimulus_duration,onset,feedback,feedback_range_fromfile,participant,session,date,expName,psychopyVersion,OS,frameRate
space,0.927,space,0.865,0.3,TRUE,Training,0,0,0,0,1,1,0.3,True,0.3,D03,r1,2021-05-07_12h51.20.785,subsecond_timing_v2,2021.1.2,MacIntel,58.82352941
space,0.752,space,0.702,0.3,TRUE,Training,0,1,1,1,1,0.75,0.1,True,0.3,D03,r1,2021-05-07_12h51.20.785,subsecond_timing_v2,2021.1.2,MacIntel,58.82352941
space,0.668,space,0.478,0.3,TRUE,Training,0,2,2,2,1,0.5,0.1,True,0.3,D03,r1,2021-05-07_12h51.20.785,subsecond_timing_v2,2021.1.2,MacIntel,58.82352941
space,0.744,space,0.729,0.3,FALSE,Training,0,3,3,3,1,0.5,0.2,True,0.3,D03,r1,2021-05-07_12h51.20.785,subsecond_timing_v2,2021.1.2,MacIntel,58.82352941
space,0.768,space,0.735,0.3,TRUE,Training,0,4,4,4,1,0.75,0.2,True,0.3,D03,r1,2021-05-07_12h51.20.785,subsecond_timing_v2,2021.1.2,MacIntel,58.82352941
space,0.885,space,0.861,0.3,TRUE,Training,0,5,5,5,1,1,0.3,True,0.3,D03,r1,2021-05-07_12h51.20.785,subsecond_timing_v2,2021.1.2,MacIntel,58.82352941
space,0.889,space,0.698,,,ms_small,0,6,6,6,1,0.706,0.2,False,None,D03,r1,2021-05-07_12h51.20.785,subsecond_timing_v2,2021.1.2,MacIntel,58.82352941
space,0.851,space,0.781,,,ms_small,0,7,7,7,1,0.812,0.3,False,None,D03,r1,2021-05-07_12h51.20.785,subsecond_timing_v2,2021.1.2,MacIntel,58.82352941
space,0.801,space,0.77,,,ms_small,0,8,8,8,1,0.847,0.1,False,None,D03,r1,2021-05-07_12h51.20.785,subsecond_timing_v2,2021.1.2,MacIntel,58.82352941
space,0.845,space,0.812,,,ms_small,0,9,9,9,1,0.67,0.3,False,None,D03,r1,2021-05-07_12h51.20.785,subsecond_timing_v2,2021.1.2,MacIntel,58.82352941
space,0.734,space,0.744,,,ms_small,0,10,10,10,1,0.988,0.1,False,None,D03,r1,2021-05-07_12h51.20.785,subsecond_timing_v2,2021.1.2,MacIntel,58.82352941
space,0.828,space,0.8,,,ms_small,0,11,11,11,1,0.953,0.1,False,None,D03,r1,2021-05-07_12h51.20.785,subsecond_timing_v2,2021.1.2,MacIntel,58.82352941
space,0.937,space,0.829,,,ms_small,0,12,12,12,1,0.882,0.3,False,None,D03,r1,2021-05-07_12h51.20.785,subsecond_timing_v2,2021.1.2,MacIntel,58.82352941
space,0.95,space,0.86,,,ms_small,0,13,13,13,1,0.918,0.1,False,None,D03,r1,2021-05-07_12h51.20.785,subsecond_timing_v2,2021.1.2,MacIntel,58.82352941
space,1.018,space,0.844,,,ms_small,0,14,14,14,1,0.776,0.2,False,None,D03,r1,2021-05-07_12h51.20.785,subsecond_timing_v2,2021.1.2,MacIntel,58.82352941
space,0.962,space,0.778,,,ms_small,0,15,15,15,1,0.741,0.3,False,None,D03,r1,2021-05-07_12h51.20.785,subsecond_timing_v2,2021.1.2,MacIntel,58.82352941
space,0.912,space,0.917,,,ms_small,0,16,16,16,1,1.024,0.3,False,None,D03,r1,2021-05-07_12h51.20.785,subsecond_timing_v2,2021.1.2,MacIntel,58.82352941
space,1.045,space,0.955,,,ms_small,0,17,17,17,1,0.67,0.1,False,None,D03,r1,2021-05-07_12h51.20.785,subsecond_timing_v2,2021.1.2,MacIntel,58.82352941
space,0.994,space,0.852,,,ms_small,0,18,18,18,1,0.812,0.3,False,None,D03,r1,2021-05-07_12h51.20.785,subsecond_timing_v2,2021.1.2,MacIntel,58.82352941
space,0.901,space,0.835,,,ms_small,0,19,19,19,1,0.953,0.3,False,None,D03,r1,2021-05-07_12h51.20.785,subsecond_timing_v2,2021.1.2,MacIntel,58.82352941
space,0.952,space,0.962,,,ms_small,0,20,20,20,1,0.776,0.1,False,None,D03,r1,2021-05-07_12h51.20.785,subsecond_timing_v2,2021.1.2,MacIntel,58.82352941
space,0.891,space,0.87,,,ms_small,0,21,21,21,1,0.741,0.2,False,None,D03,r1,2021-05-07_12h51.20.785,subsecond_timing_v2,2021.1.2,MacIntel,58.82352941
space,0.878,space,0.984,,,ms_small,0,22,22,22,1,0.847,0.2,False,None,D03,r1,2021-05-07_12h51.20.785,subsecond_timing_v2,2021.1.2,MacIntel,58.82352941
space,0.918,space,0.983,,,ms_small,0,23,23,23,1,1.024,0.1,False,None,D03,r1,2021-05-07_12h51.20.785,subsecond_timing_v2,2021.1.2,MacIntel,58.82352941
space,0.935,space,0.885,,,ms_small,0,24,24,24,1,0.882,0.3,False,None,D03,r1,2021-05-07_12h51.20.785,subsecond_timing_v2,2021.1.2,MacIntel,58.82352941
space,0.745,space,0.82,,,ms_small,0,25,25,25,1,0.988,0.1,False,None,D03,r1,2021-05-07_12h51.20.785,subsecond_timing_v2,2021.1.2,MacIntel,58.82352941
space,0.828,space,0.979,,,ms_small,0,26,26,26,1,0.706,0.2,False,None,D03,r1,2021-05-07_12h51.20.785,subsecond_timing_v2,2021.1.2,MacIntel,58.82352941
space,0.637,space,1.051,,,ms_small,0,27,27,27,1,0.918,0.3,False,None,D03,r1,2021-05-07_12h51.20.785,subsecond_timing_v2,2021.1.2,MacIntel,58.82352941
space,0.744,space,0.683,,,ms_small,0,28,28,28,1,0.706,0.1,False,None,D03,r1,2021-05-07_12h51.20.785,subsecond_timing_v2,2021.1.2,MacIntel,58.82352941
space,0.618,space,0.684,,,ms_small,0,29,29,29,1,0.918,0.1,False,None,D03,r1,2021-05-07_12h51.20.785,subsecond_timing_v2,2021.1.2,MacIntel,58.82352941
space,0.633,space,0.762,,,ms_small,0,30,30,30,1,0.67,0.2,False,None,D03,r1,2021-05-07_12h51.20.785,subsecond_timing_v2,2021.1.2,MacIntel,58.82352941
space,0.585,space,0.745,,,ms_small,0,31,31,31,1,0.988,0.1,False,None,D03,r1,2021-05-07_12h51.20.785,subsecond_timing_v2,2021.1.2,MacIntel,58.82352941
space,0.55,space,0.806,,,ms_small,0,32,32,32,1,0.953,0.2,False,None,D03,r1,2021-05-07_12h51.20.785,subsecond_timing_v2,2021.1.2,MacIntel,58.82352941
space,0.896,space,0.652,,,ms_small,0,33,33,33,1,0.776,0.1,False,None,D03,r1,2021-05-07_12h51.20.785,subsecond_timing_v2,2021.1.2,MacIntel,58.82352941
space,0.945,space,0.732,,,ms_small,0,34,34,34,1,0.847,0.1,False,None,D03,r1,2021-05-07_12h51.20.785,subsecond_timing_v2,2021.1.2,MacIntel,58.82352941
space,0.728,space,0.779,,,ms_small,0,35,35,35,1,0.741,0.2,False,None,D03,r1,2021-05-07_12h51.20.785,subsecond_timing_v2,2021.1.2,MacIntel,58.82352941
space,0.719,space,0.744,,,ms_small,0,36,36,36,1,0.812,0.1,False,None,D03,r1,2021-05-07_12h51.20.785,subsecond_timing_v2,2021.1.2,MacIntel,58.82352941
space,0.784,space,0.751,,,ms_small,0,37,37,37,1,0.882,0.1,False,None,D03,r1,2021-05-07_12h51.20.785,subsecond_timing_v2,2021.1.2,MacIntel,58.82352941
space,0.762,space,0.911,,,ms_small,0,38,38,38,1,1.024,0.3,False,None,D03,r1,2021-05-07_12h51.20.785,subsecond_timing_v2,2021.1.2,MacIntel,58.82352941
space,0.966,space,0.844,,,ms_small,0,39,39,39,1,0.847,0.2,False,None,D03,r1,2021-05-07_12h51.20.785,subsecond_timing_v2,2021.1.2,MacIntel,58.82352941
space,0.744,space,0.983,,,ms_small,0,40,40,40,1,0.918,0.2,False,None,D03,r1,2021-05-07_12h51.20.785,subsecond_timing_v2,2021.1.2,MacIntel,58.82352941
space,0.951,space,0.9,,,ms_small,0,41,41,41,1,0.953,0.1,False,None,D03,r1,2021-05-07_12h51.20.785,subsecond_timing_v2,2021.1.2,MacIntel,58.82352941
space,1.001,space,1.001,,,ms_small,0,42,42,42,1,0.882,0.3,False,None,D03,r1,2021-05-07_12h51.20.785,subsecond_timing_v2,2021.1.2,MacIntel,58.82352941
space,0.869,space,0.767,,,ms_small,0,43,43,43,1,0.741,0.2,False,None,D03,r1,2021-05-07_12h51.20.785,subsecond_timing_v2,2021.1.2,MacIntel,58.82352941
space,1.034,space,0.845,,,ms_small,0,44,44,44,1,0.67,0.3,False,None,D03,r1,2021-05-07_12h51.20.785,subsecond_timing_v2,2021.1.2,MacIntel,58.82352941
space,0.811,space,0.818,,,ms_small,0,45,45,45,1,0.812,0.2,False,None,D03,r1,2021-05-07_12h51.20.785,subsecond_timing_v2,2021.1.2,MacIntel,58.82352941
space,0.799,space,0.929,,,ms_small,0,46,46,46,1,1.024,0.3,False,None,D03,r1,2021-05-07_12h51.20.785,subsecond_timing_v2,2021.1.2,MacIntel,58.82352941
space,0.984,space,0.869,,,ms_small,0,47,47,47,1,0.706,0.3,False,None,D03,r1,2021-05-07_12h51.20.785,subsecond_timing_v2,2021.1.2,MacIntel,58.82352941
space,0.993,space,1.051,,,ms_small,0,48,48,48,1,0.988,0.2,False,None,D03,r1,2021-05-07_12h51.20.785,subsecond_timing_v2,2021.1.2,MacIntel,58.82352941
space,0.935,space,0.899,,,ms_small,0,49,49,49,1,0.776,0.1,False,None,D03,r1,2021-05-07_12h51.20.785,subsecond_timing_v2,2021.1.2,MacIntel,58.82352941
space,0.977,space,0.936,,,ms_small,0,50,50,50,1,0.988,0.1,False,None,D03,r1,2021-05-07_12h51.20.785,subsecond_timing_v2,2021.1.2,MacIntel,58.82352941
space,1.111,space,0.828,,,ms_small,0,51,51,51,1,0.706,0.3,False,None,D03,r1,2021-05-07_12h51.20.785,subsecond_timing_v2,2021.1.2,MacIntel,58.82352941
space,0.911,space,1.011,,,ms_small,0,52,52,52,1,0.953,0.2,False,None,D03,r1,2021-05-07_12h51.20.785,subsecond_timing_v2,2021.1.2,MacIntel,58.82352941
space,0.828,space,1.001,,,ms_small,0,53,53,53,1,0.847,0.2,False,None,D03,r1,2021-05-07_12h51.20.785,subsecond_timing_v2,2021.1.2,MacIntel,58.82352941
space,1.059,space,1.118,,,ms_small,0,54,54,54,1,0.918,0.3,False,None,D03,r1,2021-05-07_12h51.20.785,subsecond_timing_v2,2021.1.2,MacIntel,58.82352941
space,0.977,space,0.946,,,ms_small,0,55,55,55,1,0.741,0.1,False,None,D03,r1,2021-05-07_12h51.20.785,subsecond_timing_v2,2021.1.2,MacIntel,58.82352941
space,1.019,space,0.811,,,ms_small,0,56,56,56,1,0.67,0.1,False,None,D03,r1,2021-05-07_12h51.20.785,subsecond_timing_v2,2021.1.2,MacIntel,58.82352941
space,0.768,space,0.795,,,ms_small,0,57,57,57,1,0.776,0.2,False,None,D03,r1,2021-05-07_12h51.20.785,subsecond_timing_v2,2021.1.2,MacIntel,58.82352941
space,0.894,space,1.027,,,ms_small,0,58,58,58,1,0.882,0.1,False,None,D03,r1,2021-05-07_12h51.20.785,subsecond_timing_v2,2021.1.2,MacIntel,58.82352941
space,0.616,space,0.867,,,ms_small,0,59,59,59,1,0.812,0.2,False,None,D03,r1,2021-05-07_12h51.20.785,subsecond_timing_v2,2021.1.2,MacIntel,58.82352941
space,0.779,space,0.904,,,ms_small,0,60,60,60,1,1.024,0.2,False,None,D03,r1,2021-05-07_12h51.20.785,subsecond_timing_v2,2021.1.2,MacIntel,58.82352941
space,0.906,space,0.801,,,ms_small,0,61,61,61,1,0.847,0.3,False,None,D03,r1,2021-05-07_12h51.20.785,subsecond_timing_v2,2021.1.2,MacIntel,58.82352941
space,1.028,space,0.945,,,ms_small,0,62,62,62,1,0.67,0.1,False,None,D03,r1,2021-05-07_12h51.20.785,subsecond_timing_v2,2021.1.2,MacIntel,58.82352941
space,0.9,space,0.975,,,ms_small,0,63,63,63,1,0.988,0.3,False,None,D03,r1,2021-05-07_12h51.20.785,subsecond_timing_v2,2021.1.2,MacIntel,58.82352941
space,1.062,space,0.897,,,ms_small,0,64,64,64,1,0.812,0.1,False,None,D03,r1,2021-05-07_12h51.20.785,subsecond_timing_v2,2021.1.2,MacIntel,58.82352941
space,0.818,space,1.019,,,ms_small,0,65,65,65,1,0.882,0.3,False,None,D03,r1,2021-05-07_12h51.20.785,subsecond_timing_v2,2021.1.2,MacIntel,58.82352941
space,0.81,space,0.855,,,ms_small,0,66,66,66,1,0.918,0.1,False,None,D03,r1,2021-05-07_12h51.20.785,subsecond_timing_v2,2021.1.2,MacIntel,58.82352941
space,0.762,space,1.17,,,ms_small,0,67,67,67,1,1.024,0.1,False,None,D03,r1,2021-05-07_12h51.20.785,subsecond_timing_v2,2021.1.2,MacIntel,58.82352941
space,0.935,space,0.885,,,ms_small,0,68,68,68,1,0.776,0.2,False,None,D03,r1,2021-05-07_12h51.20.785,subsecond_timing_v2,2021.1.2,MacIntel,58.82352941
space,0.861,space,0.987,,,ms_small,0,69,69,69,1,0.953,0.1,False,None,D03,r1,2021-05-07_12h51.20.785,subsecond_timing_v2,2021.1.2,MacIntel,58.82352941
space,0.911,space,0.77,,,ms_small,0,70,70,70,1,0.706,0.1,False,None,D03,r1,2021-05-07_12h51.20.785,subsecond_timing_v2,2021.1.2,MacIntel,58.82352941
space,1.017,space,0.817,,,ms_small,0,71,71,71,1,0.741,0.3,False,None,D03,r1,2021-05-07_12h51.20.785,subsecond_timing_v2,2021.1.2,MacIntel,58.82352941
space,1.034,space,0.96,,,ms_small,0,72,72,72,1,0.882,0.2,False,None,D03,r1,2021-05-07_12h51.20.785,subsecond_timing_v2,2021.1.2,MacIntel,58.82352941
space,0.944,space,0.793,,,ms_small,0,73,73,73,1,0.918,0.3,False,None,D03,r1,2021-05-07_12h51.20.785,subsecond_timing_v2,2021.1.2,MacIntel,58.82352941
space,0.843,space,0.928,,,ms_small,0,74,74,74,1,0.988,0.2,False,None,D03,r1,2021-05-07_12h51.20.785,subsecond_timing_v2,2021.1.2,MacIntel,58.82352941
space,0.946,space,0.877,,,ms_small,0,75,75,75,1,0.67,0.1,False,None,D03,r1,2021-05-07_12h51.20.785,subsecond_timing_v2,2021.1.2,MacIntel,58.82352941
space,1.118,space,0.816,,,ms_small,0,76,76,76,1,0.776,0.3,False,None,D03,r1,2021-05-07_12h51.20.785,subsecond_timing_v2,2021.1.2,MacIntel,58.82352941
space,1.045,space,1.144,,,ms_small,0,77,77,77,1,0.847,0.2,False,None,D03,r1,2021-05-07_12h51.20.785,subsecond_timing_v2,2021.1.2,MacIntel,58.82352941
space,0.951,space,1.161,,,ms_small,0,78,78,78,1,1.024,0.2,False,None,D03,r1,2021-05-07_12h51.20.785,subsecond_timing_v2,2021.1.2,MacIntel,58.82352941
space,0.923,space,1.001,,,ms_small,0,79,79,79,1,0.812,0.3,False,None,D03,r1,2021-05-07_12h51.20.785,subsecond_timing_v2,2021.1.2,MacIntel,58.82352941
space,1.036,space,1.036,,,ms_small,0,80,80,80,1,0.953,0.1,False,None,D03,r1,2021-05-07_12h51.20.785,subsecond_timing_v2,2021.1.2,MacIntel,58.82352941
space,0.828,space,0.878,,,ms_small,0,81,81,81,1,0.706,0.2,False,None,D03,r1,2021-05-07_12h51.20.785,subsecond_timing_v2,2021.1.2,MacIntel,58.82352941
space,0.776,space,0.97,,,ms_small,0,82,82,82,1,0.741,0.3,False,None,D03,r1,2021-05-07_12h51.20.785,subsecond_timing_v2,2021.1.2,MacIntel,58.82352941
space,0.778,space,1.067,,,ms_small,0,83,83,83,1,0.706,0.1,False,None,D03,r1,2021-05-07_12h51.20.785,subsecond_timing_v2,2021.1.2,MacIntel,58.82352941
space,0.947,space,0.951,,,ms_small,0,84,84,84,1,0.812,0.2,False,None,D03,r1,2021-05-07_12h51.20.785,subsecond_timing_v2,2021.1.2,MacIntel,58.82352941
space,0.812,space,0.945,,,ms_small,0,85,85,85,1,0.882,0.2,False,None,D03,r1,2021-05-07_12h51.20.785,subsecond_timing_v2,2021.1.2,MacIntel,58.82352941
space,0.919,space,0.867,,,ms_small,0,86,86,86,1,0.776,0.1,False,None,D03,r1,2021-05-07_12h51.20.785,subsecond_timing_v2,2021.1.2,MacIntel,58.82352941
space,0.803,space,1.201,,,ms_small,0,87,87,87,1,0.988,0.3,False,None,D03,r1,2021-05-07_12h51.20.785,subsecond_timing_v2,2021.1.2,MacIntel,58.82352941
space,0.911,space,1.159,,,ms_small,0,88,88,88,1,0.67,0.2,False,None,D03,r1,2021-05-07_12h51.20.785,subsecond_timing_v2,2021.1.2,MacIntel,58.82352941
space,0.91,space,1.035,,,ms_small,0,89,89,89,1,0.741,0.3,False,None,D03,r1,2021-05-07_12h51.20.785,subsecond_timing_v2,2021.1.2,MacIntel,58.82352941
space,0.801,space,1.106,,,ms_small,0,90,90,90,1,0.918,0.1,False,None,D03,r1,2021-05-07_12h51.20.785,subsecond_timing_v2,2021.1.2,MacIntel,58.82352941
space,0.995,space,1.154,,,ms_small,0,91,91,91,1,0.847,0.3,False,None,D03,r1,2021-05-07_12h51.20.785,subsecond_timing_v2,2021.1.2,MacIntel,58.82352941
space,1,space,0.977,,,ms_small,0,92,92,92,1,0.953,0.2,False,None,D03,r1,2021-05-07_12h51.20.785,subsecond_timing_v2,2021.1.2,MacIntel,58.82352941
space,0.729,space,1.136,,,ms_small,0,93,93,93,1,1.024,0.2,False,None,D03,r1,2021-05-07_12h51.20.785,subsecond_timing_v2,2021.1.2,MacIntel,58.82352941
space,0.867,space,1.078,,,ms_small,0,94,94,94,1,0.882,0.1,False,None,D03,r1,2021-05-07_12h51.20.785,subsecond_timing_v2,2021.1.2,MacIntel,58.82352941
space,0.829,space,1.018,,,ms_small,0,95,95,95,1,0.67,0.2,False,None,D03,r1,2021-05-07_12h51.20.785,subsecond_timing_v2,2021.1.2,MacIntel,58.82352941
space,0.653,space,1.053,,,ms_small,0,96,96,96,1,0.918,0.3,False,None,D03,r1,2021-05-07_12h51.20.785,subsecond_timing_v2,2021.1.2,MacIntel,58.82352941
space,0.8,space,0.893,,,ms_small,0,97,97,97,1,0.706,0.2,False,None,D03,r1,2021-05-07_12h51.20.785,subsecond_timing_v2,2021.1.2,MacIntel,58.82352941
space,0.734,space,1.068,,,ms_small,0,98,98,98,1,0.988,0.1,False,None,D03,r1,2021-05-07_12h51.20.785,subsecond_timing_v2,2021.1.2,MacIntel,58.82352941
space,1.108,space,0.782,,,ms_small,0,99,99,99,1,0.741,0.3,False,None,D03,r1,2021-05-07_12h51.20.785,subsecond_timing_v2,2021.1.2,MacIntel,58.82352941
space,0.944,space,1.2,,,ms_small,0,100,100,100,1,1.024,0.2,False,None,D03,r1,2021-05-07_12h51.20.785,subsecond_timing_v2,2021.1.2,MacIntel,58.82352941
space,0.977,space,1.069,,,ms_small,0,101,101,101,1,0.776,0.2,False,None,D03,r1,2021-05-07_12h51.20.785,subsecond_timing_v2,2021.1.2,MacIntel,58.82352941
space,0.87,space,0.884,,,ms_small,0,102,102,102,1,0.812,0.2,False,None,D03,r1,2021-05-07_12h51.20.785,subsecond_timing_v2,2021.1.2,MacIntel,58.82352941
space,0.895,space,0.917,,,ms_small,0,103,103,103,1,0.953,0.2,False,None,D03,r1,2021-05-07_12h51.20.785,subsecond_timing_v2,2021.1.2,MacIntel,58.82352941
space,1.118,space,0.983,,,ms_small,0,104,104,104,1,0.847,0.1,False,None,D03,r1,2021-05-07_12h51.20.785,subsecond_timing_v2,2021.1.2,MacIntel,58.82352941
space,0.87,space,0.917,,,ms_small,0,105,105,105,1,0.706,0.2,False,None,D03,r1,2021-05-07_12h51.20.785,subsecond_timing_v2,2021.1.2,MacIntel,58.82352941
space,1.009,space,0.949,,,ms_small,0,106,106,106,1,0.741,0.1,False,None,D03,r1,2021-05-07_12h51.20.785,subsecond_timing_v2,2021.1.2,MacIntel,58.82352941
space,0.969,space,0.826,,,ms_small,0,107,107,107,1,0.67,0.1,False,None,D03,r1,2021-05-07_12h51.20.785,subsecond_timing_v2,2021.1.2,MacIntel,58.82352941
space,0.868,space,0.75,,,ms_small,0,108,108,108,1,0.847,0.1,False,None,D03,r1,2021-05-07_12h51.20.785,subsecond_timing_v2,2021.1.2,MacIntel,58.82352941
space,0.919,space,0.847,,,ms_small,0,109,109,109,1,0.812,0.2,False,None,D03,r1,2021-05-07_12h51.20.785,subsecond_timing_v2,2021.1.2,MacIntel,58.82352941
space,0.968,space,0.845,,,ms_small,0,110,110,110,1,0.776,0.3,False,None,D03,r1,2021-05-07_12h51.20.785,subsecond_timing_v2,2021.1.2,MacIntel,58.82352941
space,0.85,space,1.018,,,ms_small,0,111,111,111,1,0.988,0.3,False,None,D03,r1,2021-05-07_12h51.20.785,subsecond_timing_v2,2021.1.2,MacIntel,58.82352941
space,0.87,space,1.084,,,ms_small,0,112,112,112,1,0.918,0.1,False,None,D03,r1,2021-05-07_12h51.20.785,subsecond_timing_v2,2021.1.2,MacIntel,58.82352941
space,1.302,space,0.951,,,ms_small,0,113,113,113,1,0.882,0.1,False,None,D03,r1,2021-05-07_12h51.20.785,subsecond_timing_v2,2021.1.2,MacIntel,58.82352941
space,0.945,space,0.979,,,ms_small,0,114,114,114,1,1.024,0.2,False,None,D03,r1,2021-05-07_12h51.20.785,subsecond_timing_v2,2021.1.2,MacIntel,58.82352941
space,0.811,space,1.069,,,ms_small,0,115,115,115,1,0.953,0.2,False,None,D03,r1,2021-05-07_12h51.20.785,subsecond_timing_v2,2021.1.2,MacIntel,58.82352941
space,1.103,space,0.982,,,ms_small,0,116,116,116,1,0.847,0.3,False,None,D03,r1,2021-05-07_12h51.20.785,subsecond_timing_v2,2021.1.2,MacIntel,58.82352941
space,0.844,space,0.984,,,ms_small,0,117,117,117,1,0.882,0.2,False,None,D03,r1,2021-05-07_12h51.20.785,subsecond_timing_v2,2021.1.2,MacIntel,58.82352941
space,0.894,space,0.963,,,ms_small,0,118,118,118,1,1.024,0.1,False,None,D03,r1,2021-05-07_12h51.20.785,subsecond_timing_v2,2021.1.2,MacIntel,58.82352941
space,0.95,space,1.012,,,ms_small,0,119,119,119,1,0.706,0.2,False,None,D03,r1,2021-05-07_12h51.20.785,subsecond_timing_v2,2021.1.2,MacIntel,58.82352941
space,0.785,space,0.985,,,ms_small,0,120,120,120,1,0.918,0.1,False,None,D03,r1,2021-05-07_12h51.20.785,subsecond_timing_v2,2021.1.2,MacIntel,58.82352941
space,0.986,space,0.752,,,ms_small,0,121,121,121,1,0.776,0.1,False,None,D03,r1,2021-05-07_12h51.20.785,subsecond_timing_v2,2021.1.2,MacIntel,58.82352941
space,1.377,space,0.968,,,ms_small,0,122,122,122,1,0.953,0.3,False,None,D03,r1,2021-05-07_12h51.20.785,subsecond_timing_v2,2021.1.2,MacIntel,58.82352941
space,1.001,space,0.845,,,ms_small,0,123,123,123,1,0.67,0.1,False,None,D03,r1,2021-05-07_12h51.20.785,subsecond_timing_v2,2021.1.2,MacIntel,58.82352941
space,1.152,space,1.067,,,ms_small,0,124,124,124,1,0.812,0.2,False,None,D03,r1,2021-05-07_12h51.20.785,subsecond_timing_v2,2021.1.2,MacIntel,58.82352941
space,1.031,space,1.051,,,ms_small,0,125,125,125,1,0.988,0.2,False,None,D03,r1,2021-05-07_12h51.20.785,subsecond_timing_v2,2021.1.2,MacIntel,58.82352941
space,0.968,space,1.063,,,ms_small,0,126,126,126,1,0.741,0.3,False,None,D03,r1,2021-05-07_12h51.20.785,subsecond_timing_v2,2021.1.2,MacIntel,58.82352941
space,0.927,space,0.75,,,ms_small,0,127,127,127,1,0.67,0.1,False,None,D03,r1,2021-05-07_12h51.20.785,subsecond_timing_v2,2021.1.2,MacIntel,58.82352941
space,0.935,space,1.085,,,ms_small,0,129,129,129,1,0.847,0.1,False,None,D03,r1,2021-05-07_12h51.20.785,subsecond_timing_v2,2021.1.2,MacIntel,58.82352941
space,1.006,space,0.819,,,ms_small,0,130,130,130,1,0.812,0.1,False,None,D03,r1,2021-05-07_12h51.20.785,subsecond_timing_v2,2021.1.2,MacIntel,58.82352941
space,0.825,space,0.843,,,ms_small,0,131,131,131,1,0.882,0.1,False,None,D03,r1,2021-05-07_12h51.20.785,subsecond_timing_v2,2021.1.2,MacIntel,58.82352941
space,0.912,space,0.994,,,ms_small,0,132,132,132,1,1.024,0.2,False,None,D03,r1,2021-05-07_12h51.20.785,subsecond_timing_v2,2021.1.2,MacIntel,58.82352941
space,0.819,space,1.085,,,ms_small,0,133,133,133,1,0.953,0.3,False,None,D03,r1,2021-05-07_12h51.20.785,subsecond_timing_v2,2021.1.2,MacIntel,58.82352941
space,0.983,space,1.011,,,ms_small,0,134,134,134,1,0.988,0.2,False,None,D03,r1,2021-05-07_12h51.20.785,subsecond_timing_v2,2021.1.2,MacIntel,58.82352941
space,0.938,space,0.849,,,ms_small,0,135,135,135,1,0.706,0.1,False,None,D03,r1,2021-05-07_12h51.20.785,subsecond_timing_v2,2021.1.2,MacIntel,58.82352941
space,0.984,space,0.961,,,ms_small,0,136,136,136,1,0.918,0.1,False,None,D03,r1,2021-05-07_12h51.20.785,subsecond_timing_v2,2021.1.2,MacIntel,58.82352941
space,0.873,space,0.902,,,ms_small,0,137,137,137,1,0.741,0.1,False,None,D03,r1,2021-05-07_12h51.20.785,subsecond_timing_v2,2021.1.2,MacIntel,58.82352941
space,0.992,space,0.869,,,ms_small,0,138,138,138,1,0.741,0.3,False,None,D03,r1,2021-05-07_12h51.20.785,subsecond_timing_v2,2021.1.2,MacIntel,58.82352941
space,0.828,space,0.934,,,ms_small,0,139,139,139,1,0.988,0.2,False,None,D03,r1,2021-05-07_12h51.20.785,subsecond_timing_v2,2021.1.2,MacIntel,58.82352941
space,1.128,space,0.884,,,ms_small,0,140,140,140,1,0.812,0.3,False,None,D03,r1,2021-05-07_12h51.20.785,subsecond_timing_v2,2021.1.2,MacIntel,58.82352941
space,0.868,space,1.077,,,ms_small,0,141,141,141,1,0.918,0.2,False,None,D03,r1,2021-05-07_12h51.20.785,subsecond_timing_v2,2021.1.2,MacIntel,58.82352941
space,0.918,space,1.235,,,ms_small,0,142,142,142,1,0.847,0.2,False,None,D03,r1,2021-05-07_12h51.20.785,subsecond_timing_v2,2021.1.2,MacIntel,58.82352941
space,1.018,space,0.878,,,ms_small,0,143,143,143,1,0.953,0.1,False,None,D03,r1,2021-05-07_12h51.20.785,subsecond_timing_v2,2021.1.2,MacIntel,58.82352941
space,1.151,space,0.86,,,ms_small,0,144,144,144,1,0.776,0.3,False,None,D03,r1,2021-05-07_12h51.20.785,subsecond_timing_v2,2021.1.2,MacIntel,58.82352941
space,0.945,space,0.933,,,ms_small,0,145,145,145,1,0.706,0.3,False,None,D03,r1,2021-05-07_12h51.20.785,subsecond_timing_v2,2021.1.2,MacIntel,58.82352941
space,0.761,space,1.044,,,ms_small,0,146,146,146,1,1.024,0.1,False,None,D03,r1,2021-05-07_12h51.20.785,subsecond_timing_v2,2021.1.2,MacIntel,58.82352941
space,0.838,space,1.095,,,ms_small,0,147,147,147,1,0.882,0.2,False,None,D03,r1,2021-05-07_12h51.20.785,subsecond_timing_v2,2021.1.2,MacIntel,58.82352941
space,0.911,space,0.868,,,ms_small,0,148,148,148,1,0.67,0.3,False,None,D03,r1,2021-05-07_12h51.20.785,subsecond_timing_v2,2021.1.2,MacIntel,58.82352941
space,0.946,space,0.801,,,ms_small,0,149,149,149,1,0.67,0.3,False,None,D03,r1,2021-05-07_12h51.20.785,subsecond_timing_v2,2021.1.2,MacIntel,58.82352941
space,1.05,space,0.777,,,ms_small,0,150,150,150,1,0.741,0.3,False,None,D03,r1,2021-05-07_12h51.20.785,subsecond_timing_v2,2021.1.2,MacIntel,58.82352941
space,1.177,space,0.566,,,ms_small,0,151,151,151,1,0.918,0.1,False,None,D03,r1,2021-05-07_12h51.20.785,subsecond_timing_v2,2021.1.2,MacIntel,58.82352941
space,0.986,space,0.834,,,ms_small,0,152,152,152,1,0.706,0.3,False,None,D03,r1,2021-05-07_12h51.20.785,subsecond_timing_v2,2021.1.2,MacIntel,58.82352941
space,0.834,space,1.095,,,ms_small,0,153,153,153,1,0.988,0.2,False,None,D03,r1,2021-05-07_12h51.20.785,subsecond_timing_v2,2021.1.2,MacIntel,58.82352941
space,1.05,space,0.92,,,ms_small,0,154,154,154,1,0.847,0.2,False,None,D03,r1,2021-05-07_12h51.20.785,subsecond_timing_v2,2021.1.2,MacIntel,58.82352941
space,0.884,space,0.884,,,ms_small,0,155,155,155,1,0.776,0.3,False,None,D03,r1,2021-05-07_12h51.20.785,subsecond_timing_v2,2021.1.2,MacIntel,58.82352941
space,0.962,space,0.919,,,ms_small,0,156,156,156,1,0.882,0.2,False,None,D03,r1,2021-05-07_12h51.20.785,subsecond_timing_v2,2021.1.2,MacIntel,58.82352941
space,1.028,space,0.895,,,ms_small,0,157,157,157,1,0.812,0.1,False,None,D03,r1,2021-05-07_12h51.20.785,subsecond_timing_v2,2021.1.2,MacIntel,58.82352941
space,0.801,space,1.002,,,ms_small,0,158,158,158,1,1.024,0.1,False,None,D03,r1,2021-05-07_12h51.20.785,subsecond_timing_v2,2021.1.2,MacIntel,58.82352941
space,0.986,space,0.983,,,ms_small,0,159,159,159,1,0.953,0.2,False,None,D03,r1,2021-05-07_12h51.20.785,subsecond_timing_v2,2021.1.2,MacIntel,58.82352941
space,0.833,space,1.212,,,ms_small,0,160,160,160,1,0.812,0.2,False,None,D03,r1,2021-05-07_12h51.20.785,subsecond_timing_v2,2021.1.2,MacIntel,58.82352941
space,0.883,space,0.752,,,ms_small,0,161,161,161,1,0.67,0.1,False,None,D03,r1,2021-05-07_12h51.20.785,subsecond_timing_v2,2021.1.2,MacIntel,58.82352941
space,0.896,space,1.061,,,ms_small,0,162,162,162,1,0.953,0.1,False,None,D03,r1,2021-05-07_12h51.20.785,subsecond_timing_v2,2021.1.2,MacIntel,58.82352941
space,1.014,space,0.946,,,ms_small,0,163,163,163,1,0.882,0.3,False,None,D03,r1,2021-05-07_12h51.20.785,subsecond_timing_v2,2021.1.2,MacIntel,58.82352941
space,1.068,space,0.978,,,ms_small,0,164,164,164,1,0.988,0.1,False,None,D03,r1,2021-05-07_12h51.20.785,subsecond_timing_v2,2021.1.2,MacIntel,58.82352941
space,0.811,space,1.168,,,ms_small,0,165,165,165,1,0.706,0.1,False,None,D03,r1,2021-05-07_12h51.20.785,subsecond_timing_v2,2021.1.2,MacIntel,58.82352941
space,1,space,1.195,,,ms_small,0,166,166,166,1,1.024,0.3,False,None,D03,r1,2021-05-07_12h51.20.785,subsecond_timing_v2,2021.1.2,MacIntel,58.82352941
space,0.851,space,1.307,,,ms_small,0,167,167,167,1,0.847,0.3,False,None,D03,r1,2021-05-07_12h51.20.785,subsecond_timing_v2,2021.1.2,MacIntel,58.82352941
space,0.886,space,0.981,,,ms_small,0,168,168,168,1,0.741,0.3,False,None,D03,r1,2021-05-07_12h51.20.785,subsecond_timing_v2,2021.1.2,MacIntel,58.82352941
space,0.895,space,1.046,,,ms_small,0,169,169,169,1,0.918,0.2,False,None,D03,r1,2021-05-07_12h51.20.785,subsecond_timing_v2,2021.1.2,MacIntel,58.82352941
space,0.984,space,0.937,,,ms_small,0,170,170,170,1,0.776,0.1,False,None,D03,r1,2021-05-07_12h51.20.785,subsecond_timing_v2,2021.1.2,MacIntel,58.82352941
space,0.851,space,1.035,,,ms_small,0,171,171,171,1,0.882,0.3,False,None,D03,r1,2021-05-07_12h51.20.785,subsecond_timing_v2,2021.1.2,MacIntel,58.82352941
space,0.952,space,0.933,,,ms_small,0,172,172,172,1,0.741,0.1,False,None,D03,r1,2021-05-07_12h51.20.785,subsecond_timing_v2,2021.1.2,MacIntel,58.82352941
space,0.995,space,0.81,,,ms_small,0,173,173,173,1,0.988,0.1,False,None,D03,r1,2021-05-07_12h51.20.785,subsecond_timing_v2,2021.1.2,MacIntel,58.82352941
space,1.077,space,0.869,,,ms_small,0,174,174,174,1,0.706,0.2,False,None,D03,r1,2021-05-07_12h51.20.785,subsecond_timing_v2,2021.1.2,MacIntel,58.82352941
space,0.698,space,0.8,,,ms_small,0,175,175,175,1,0.918,0.2,False,None,D03,r1,2021-05-07_12h51.20.785,subsecond_timing_v2,2021.1.2,MacIntel,58.82352941
space,0.802,space,1.014,,,ms_small,0,176,176,176,1,0.953,0.2,False,None,D03,r1,2021-05-07_12h51.20.785,subsecond_timing_v2,2021.1.2,MacIntel,58.82352941
space,0.968,space,1.013,,,ms_small,0,177,177,177,1,0.67,0.2,False,None,D03,r1,2021-05-07_12h51.20.785,subsecond_timing_v2,2021.1.2,MacIntel,58.82352941
space,0.884,space,0.919,,,ms_small,0,178,178,178,1,0.847,0.3,False,None,D03,r1,2021-05-07_12h51.20.785,subsecond_timing_v2,2021.1.2,MacIntel,58.82352941
space,0.835,space,0.903,,,ms_small,0,179,179,179,1,0.776,0.1,False,None,D03,r1,2021-05-07_12h51.20.785,subsecond_timing_v2,2021.1.2,MacIntel,58.82352941
space,1.15,space,0.935,,,ms_small,0,180,180,180,1,0.812,0.1,False,None,D03,r1,2021-05-07_12h51.20.785,subsecond_timing_v2,2021.1.2,MacIntel,58.82352941
space,0.769,space,1.02,,,ms_small,0,181,181,181,1,1.024,0.2,False,None,D03,r1,2021-05-07_12h51.20.785,subsecond_timing_v2,2021.1.2,MacIntel,58.82352941
space,0.951,space,1.001,,,ms_small,0,182,182,182,1,0.706,0.3,False,None,D03,r1,2021-05-07_12h51.20.785,subsecond_timing_v2,2021.1.2,MacIntel,58.82352941
space,0.736,space,0.999,,,ms_small,0,183,183,183,1,0.988,0.1,False,None,D03,r1,2021-05-07_12h51.20.785,subsecond_timing_v2,2021.1.2,MacIntel,58.82352941
space,0.784,space,0.952,,,ms_small,0,184,184,184,1,1.024,0.3,False,None,D03,r1,2021-05-07_12h51.20.785,subsecond_timing_v2,2021.1.2,MacIntel,58.82352941
space,1.028,space,0.87,,,ms_small,0,185,185,185,1,0.847,0.1,False,None,D03,r1,2021-05-07_12h51.20.785,subsecond_timing_v2,2021.1.2,MacIntel,58.82352941
space,0.9,space,0.866,,,ms_small,0,186,186,186,1,0.741,0.1,False,None,D03,r1,2021-05-07_12h51.20.785,subsecond_timing_v2,2021.1.2,MacIntel,58.82352941
space,1.017,space,1.033,,,ms_small,0,187,187,187,1,0.776,0.3,False,None,D03,r1,2021-05-07_12h51.20.785,subsecond_timing_v2,2021.1.2,MacIntel,58.82352941
space,0.91,space,0.985,,,ms_small,0,188,188,188,1,0.812,0.3,False,None,D03,r1,2021-05-07_12h51.20.785,subsecond_timing_v2,2021.1.2,MacIntel,58.82352941
space,1.102,space,1.318,,,ms_small,0,189,189,189,1,0.918,0.3,False,None,D03,r1,2021-05-07_12h51.20.785,subsecond_timing_v2,2021.1.2,MacIntel,58.82352941
space,1.232,space,1.116,,,ms_small,0,190,190,190,1,0.67,0.1,False,None,D03,r1,2021-05-07_12h51.20.785,subsecond_timing_v2,2021.1.2,MacIntel,58.82352941
space,0.956,space,1.077,,,ms_small,0,191,191,191,1,0.882,0.2,False,None,D03,r1,2021-05-07_12h51.20.785,subsecond_timing_v2,2021.1.2,MacIntel,58.82352941
space,0.951,space,1.051,,,ms_small,0,192,192,192,1,0.953,0.1,False,None,D03,r1,2021-05-07_12h51.20.785,subsecond_timing_v2,2021.1.2,MacIntel,58.82352941
space,1.003,space,1.249,,,ms_small,0,193,193,193,1,0.776,0.1,False,None,D03,r1,2021-05-07_12h51.20.785,subsecond_timing_v2,2021.1.2,MacIntel,58.82352941
space,0.793,space,1.115,,,ms_small,0,194,194,194,1,0.988,0.3,False,None,D03,r1,2021-05-07_12h51.20.785,subsecond_timing_v2,2021.1.2,MacIntel,58.82352941
space,0.957,space,1.146,,,ms_small,0,195,195,195,1,0.953,0.1,False,None,D03,r1,2021-05-07_12h51.20.785,subsecond_timing_v2,2021.1.2,MacIntel,58.82352941
space,0.902,space,1.217,,,ms_small,0,196,196,196,1,0.741,0.3,False,None,D03,r1,2021-05-07_12h51.20.785,subsecond_timing_v2,2021.1.2,MacIntel,58.82352941
space,0.862,space,0.994,,,ms_small,0,197,197,197,1,0.67,0.3,False,None,D03,r1,2021-05-07_12h51.20.785,subsecond_timing_v2,2021.1.2,MacIntel,58.82352941
space,1.129,space,0.918,,,ms_small,0,198,198,198,1,0.847,0.3,False,None,D03,r1,2021-05-07_12h51.20.785,subsecond_timing_v2,2021.1.2,MacIntel,58.82352941
space,1.195,space,0.9,,,ms_small,0,199,199,199,1,0.882,0.2,False,None,D03,r1,2021-05-07_12h51.20.785,subsecond_timing_v2,2021.1.2,MacIntel,58.82352941
space,0.868,space,0.741,,,ms_small,0,200,200,200,1,0.706,0.3,False,None,D03,r1,2021-05-07_12h51.20.785,subsecond_timing_v2,2021.1.2,MacIntel,58.82352941
space,0.784,space,0.845,,,ms_small,0,201,201,201,1,0.812,0.1,False,None,D03,r1,2021-05-07_12h51.20.785,subsecond_timing_v2,2021.1.2,MacIntel,58.82352941
space,0.961,space,1.05,,,ms_small,0,202,202,202,1,1.024,0.2,False,None,D03,r1,2021-05-07_12h51.20.785,subsecond_timing_v2,2021.1.2,MacIntel,58.82352941
space,0.944,space,0.871,,,ms_small,0,203,203,203,1,0.918,0.1,False,None,D03,r1,2021-05-07_12h51.20.785,subsecond_timing_v2,2021.1.2,MacIntel,58.82352941
space,0.944,space,1.029,,,ms_small,0,204,204,204,1,0.776,0.2,False,None,D03,r1,2021-05-07_12h51.20.785,subsecond_timing_v2,2021.1.2,MacIntel,58.82352941
space,0.91,space,0.816,,,ms_small,0,205,205,205,1,0.67,0.1,False,None,D03,r1,2021-05-07_12h51.20.785,subsecond_timing_v2,2021.1.2,MacIntel,58.82352941
space,1.017,space,0.828,,,ms_small,0,206,206,206,1,0.706,0.3,False,None,D03,r1,2021-05-07_12h51.20.785,subsecond_timing_v2,2021.1.2,MacIntel,58.82352941
space,0.995,space,1.117,,,ms_small,0,207,207,207,1,0.988,0.2,False,None,D03,r1,2021-05-07_12h51.20.785,subsecond_timing_v2,2021.1.2,MacIntel,58.82352941
space,1.246,space,0.904,,,ms_small,0,208,208,208,1,0.847,0.3,False,None,D03,r1,2021-05-07_12h51.20.785,subsecond_timing_v2,2021.1.2,MacIntel,58.82352941
space,1.068,space,1.051,,,ms_small,0,209,209,209,1,0.953,0.2,False,None,D03,r1,2021-05-07_12h51.20.785,subsecond_timing_v2,2021.1.2,MacIntel,58.82352941
space,1.252,space,1.019,,,ms_small,0,210,210,210,1,0.812,0.1,False,None,D03,r1,2021-05-07_12h51.20.785,subsecond_timing_v2,2021.1.2,MacIntel,58.82352941
space,0.928,space,1.153,,,ms_small,0,212,212,212,1,0.741,0.3,False,None,D03,r1,2021-05-07_12h51.20.785,subsecond_timing_v2,2021.1.2,MacIntel,58.82352941
space,1.018,space,1.094,,,ms_small,0,213,213,213,1,0.882,0.3,False,None,D03,r1,2021-05-07_12h51.20.785,subsecond_timing_v2,2021.1.2,MacIntel,58.82352941
space,1.07,space,0.95,,,ms_small,0,214,214,214,1,1.024,0.1,False,None,D03,r1,2021-05-07_12h51.20.785,subsecond_timing_v2,2021.1.2,MacIntel,58.82352941
space,1,space,1.053,,,ms_small,0,215,215,215,1,1.024,0.2,False,None,D03,r1,2021-05-07_12h51.20.785,subsecond_timing_v2,2021.1.2,MacIntel,58.82352941
space,0.867,space,0.743,,,ms_small,0,216,216,216,1,0.706,0.2,False,None,D03,r1,2021-05-07_12h51.20.785,subsecond_timing_v2,2021.1.2,MacIntel,58.82352941
space,1.628,space,0.836,,,ms_small,0,217,217,217,1,0.882,0.1,False,None,D03,r1,2021-05-07_12h51.20.785,subsecond_timing_v2,2021.1.2,MacIntel,58.82352941
space,1.036,space,0.901,,,ms_small,0,218,218,218,1,0.776,0.2,False,None,D03,r1,2021-05-07_12h51.20.785,subsecond_timing_v2,2021.1.2,MacIntel,58.82352941
space,0.91,space,0.896,,,ms_small,0,219,219,219,1,0.847,0.2,False,None,D03,r1,2021-05-07_12h51.20.785,subsecond_timing_v2,2021.1.2,MacIntel,58.82352941
space,1.017,space,0.901,,,ms_small,0,220,220,220,1,0.812,0.1,False,None,D03,r1,2021-05-07_12h51.20.785,subsecond_timing_v2,2021.1.2,MacIntel,58.82352941
space,0.768,space,1.019,,,ms_small,0,221,221,221,1,0.988,0.1,False,None,D03,r1,2021-05-07_12h51.20.785,subsecond_timing_v2,2021.1.2,MacIntel,58.82352941
space,0.994,space,1.085,,,ms_small,0,222,222,222,1,0.918,0.1,False,None,D03,r1,2021-05-07_12h51.20.785,subsecond_timing_v2,2021.1.2,MacIntel,58.82352941
space,1.068,space,0.716,,,ms_small,0,223,223,223,1,0.67,0.2,False,None,D03,r1,2021-05-07_12h51.20.785,subsecond_timing_v2,2021.1.2,MacIntel,58.82352941
space,1.044,space,0.818,,,ms_small,0,224,224,224,1,0.741,0.3,False,None,D03,r1,2021-05-07_12h51.20.785,subsecond_timing_v2,2021.1.2,MacIntel,58.82352941
space,0.967,space,1.078,,,ms_small,0,225,225,225,1,0.953,0.1,False,None,D03,r1,2021-05-07_12h51.20.785,subsecond_timing_v2,2021.1.2,MacIntel,58.82352941
