key_resp_start.keys,key_resp_start.rt,key_resp_stop.keys,key_resp_stop.rt,feedback_range,hit,stimulus_range,trials.thisRepN,trials.thisTrialN,trials.thisN,trials.thisIndex,trials.ran,stimulus_duration,onset,feedback,feedback_range_fromfile,participant,session,date,expName,psychopyVersion,OS,frameRate
space,3.418,space,1.054,0.3,FALSE,Training,0,0,0,0,1,2,0.1,True,0.3,D06,r3,2021-05-02_14h13.09.465,subsecond_timing_v2,2021.1.2,Win32,59.95203837
space,6.884,space,5.419,0.3,TRUE,Training,0,1,1,1,1,5,0.2,True,0.3,D06,r3,2021-05-02_14h13.09.465,subsecond_timing_v2,2021.1.2,Win32,59.95203837
space,1.606,space,5.469,0.3,FALSE,Training,0,2,2,2,1,4,0.1,True,0.3,D06,r3,2021-05-02_14h13.09.465,subsecond_timing_v2,2021.1.2,Win32,59.95203837
space,2.418,space,4.85,,,large,0,3,3,3,1,4.5,0.3,False,None,D06,r3,2021-05-02_14h13.09.465,subsecond_timing_v2,2021.1.2,Win32,59.95203837
space,2.504,space,4.17,,,large,0,4,4,4,1,3.5,0.3,False,None,D06,r3,2021-05-02_14h13.09.465,subsecond_timing_v2,2021.1.2,Win32,59.95203837
space,2.341,space,6.552,,,large,0,5,5,5,1,5.5,0.3,False,None,D06,r3,2021-05-02_14h13.09.465,subsecond_timing_v2,2021.1.2,Win32,59.95203837
space,1.369,space,3.602,,,large,0,6,6,6,1,3,0.1,False,None,D06,r3,2021-05-02_14h13.09.465,subsecond_timing_v2,2021.1.2,Win32,59.95203837
space,1.235,space,4.702,,,large,0,7,7,7,1,2.5,0.1,False,None,D06,r3,2021-05-02_14h13.09.465,subsecond_timing_v2,2021.1.2,Win32,59.95203837
space,1.335,space,5.218,,,large,0,8,8,8,1,5,0.3,False,None,D06,r3,2021-05-02_14h13.09.465,subsecond_timing_v2,2021.1.2,Win32,59.95203837
space,1.303,space,5.718,,,large,0,9,9,9,1,6,0.3,False,None,D06,r3,2021-05-02_14h13.09.465,subsecond_timing_v2,2021.1.2,Win32,59.95203837
space,1.417,space,1.654,,,large,0,10,10,10,1,2,0.2,False,None,D06,r3,2021-05-02_14h13.09.465,subsecond_timing_v2,2021.1.2,Win32,59.95203837
space,1.423,space,3.771,,,large,0,11,11,11,1,4,0.1,False,None,D06,r3,2021-05-02_14h13.09.465,subsecond_timing_v2,2021.1.2,Win32,59.95203837
space,1.323,space,1.784,,,large,0,12,12,12,1,2.5,0.3,False,None,D06,r3,2021-05-02_14h13.09.465,subsecond_timing_v2,2021.1.2,Win32,59.95203837
space,1.19,space,3.87,,,large,0,13,13,13,1,4,0.1,False,None,D06,r3,2021-05-02_14h13.09.465,subsecond_timing_v2,2021.1.2,Win32,59.95203837
space,1.017,space,3.686,,,large,0,14,14,14,1,3.5,0.3,False,None,D06,r3,2021-05-02_14h13.09.465,subsecond_timing_v2,2021.1.2,Win32,59.95203837
space,1.3,space,5.71,,,large,0,15,15,15,1,5.5,0.1,False,None,D06,r3,2021-05-02_14h13.09.465,subsecond_timing_v2,2021.1.2,Win32,59.95203837
space,0.935,space,5.739,,,large,0,16,16,16,1,6,0.1,False,None,D06,r3,2021-05-02_14h13.09.465,subsecond_timing_v2,2021.1.2,Win32,59.95203837
space,1.084,space,2.821,,,large,0,17,17,17,1,3,0.2,False,None,D06,r3,2021-05-02_14h13.09.465,subsecond_timing_v2,2021.1.2,Win32,59.95203837
space,1.052,space,1.851,,,large,0,18,18,18,1,2,0.2,False,None,D06,r3,2021-05-02_14h13.09.465,subsecond_timing_v2,2021.1.2,Win32,59.95203837
space,1.286,space,4.624,,,large,0,19,19,19,1,5,0.2,False,None,D06,r3,2021-05-02_14h13.09.465,subsecond_timing_v2,2021.1.2,Win32,59.95203837
space,1.102,space,4.236,,,large,0,20,20,20,1,4.5,0.3,False,None,D06,r3,2021-05-02_14h13.09.465,subsecond_timing_v2,2021.1.2,Win32,59.95203837
space,1.152,space,3.089,,,large,0,21,21,21,1,3.5,0.2,False,None,D06,r3,2021-05-02_14h13.09.465,subsecond_timing_v2,2021.1.2,Win32,59.95203837
space,0.72,space,2.918,,,large,0,22,22,22,1,3,0.2,False,None,D06,r3,2021-05-02_14h13.09.465,subsecond_timing_v2,2021.1.2,Win32,59.95203837
space,0.851,space,4.902,,,large,0,23,23,23,1,5.5,0.1,False,None,D06,r3,2021-05-02_14h13.09.465,subsecond_timing_v2,2021.1.2,Win32,59.95203837
space,1.051,space,2.141,,,large,0,24,24,24,1,2,0.1,False,None,D06,r3,2021-05-02_14h13.09.465,subsecond_timing_v2,2021.1.2,Win32,59.95203837
space,1.085,space,5.724,,,large,0,25,25,25,1,6,0.3,False,None,D06,r3,2021-05-02_14h13.09.465,subsecond_timing_v2,2021.1.2,Win32,59.95203837
space,1.416,space,2.136,,,large,0,26,26,26,1,2.5,0.1,False,None,D06,r3,2021-05-02_14h13.09.465,subsecond_timing_v2,2021.1.2,Win32,59.95203837
space,1.1,space,3.968,,,large,0,27,27,27,1,4,0.2,False,None,D06,r3,2021-05-02_14h13.09.465,subsecond_timing_v2,2021.1.2,Win32,59.95203837
space,0.939,space,3.869,,,large,0,28,28,28,1,4.5,0.3,False,None,D06,r3,2021-05-02_14h13.09.465,subsecond_timing_v2,2021.1.2,Win32,59.95203837
space,1.005,space,4.519,,,large,0,29,29,29,1,5,0.1,False,None,D06,r3,2021-05-02_14h13.09.465,subsecond_timing_v2,2021.1.2,Win32,59.95203837
space,1.571,space,2.568,,,large,0,30,30,30,1,2.5,0.3,False,None,D06,r3,2021-05-02_14h13.09.465,subsecond_timing_v2,2021.1.2,Win32,59.95203837
space,1.19,space,4.736,,,large,0,31,31,31,1,6,0.1,False,None,D06,r3,2021-05-02_14h13.09.465,subsecond_timing_v2,2021.1.2,Win32,59.95203837
space,1.073,space,4.272,,,large,0,32,32,32,1,5,0.3,False,None,D06,r3,2021-05-02_14h13.09.465,subsecond_timing_v2,2021.1.2,Win32,59.95203837
space,1.117,space,4.018,,,large,0,33,33,33,1,3.5,0.1,False,None,D06,r3,2021-05-02_14h13.09.465,subsecond_timing_v2,2021.1.2,Win32,59.95203837
space,0.903,space,2.922,,,large,0,34,34,34,1,3,0.1,False,None,D06,r3,2021-05-02_14h13.09.465,subsecond_timing_v2,2021.1.2,Win32,59.95203837
space,1.569,space,4.8,,,large,0,35,35,35,1,5.5,0.2,False,None,D06,r3,2021-05-02_14h13.09.465,subsecond_timing_v2,2021.1.2,Win32,59.95203837
space,1.004,space,2.005,,,large,0,36,36,36,1,2,0.2,False,None,D06,r3,2021-05-02_14h13.09.465,subsecond_timing_v2,2021.1.2,Win32,59.95203837
space,1.085,space,3.9,,,large,0,37,37,37,1,4,0.2,False,None,D06,r3,2021-05-02_14h13.09.465,subsecond_timing_v2,2021.1.2,Win32,59.95203837
space,1.3,space,4.635,,,large,0,38,38,38,1,4.5,0.2,False,None,D06,r3,2021-05-02_14h13.09.465,subsecond_timing_v2,2021.1.2,Win32,59.95203837
space,1.067,space,3.823,,,large,0,39,39,39,1,4,0.3,False,None,D06,r3,2021-05-02_14h13.09.465,subsecond_timing_v2,2021.1.2,Win32,59.95203837
space,1.149,space,3.284,,,large,0,40,40,40,1,3,0.3,False,None,D06,r3,2021-05-02_14h13.09.465,subsecond_timing_v2,2021.1.2,Win32,59.95203837
space,1.001,space,4.024,,,large,0,41,41,41,1,4.5,0.1,False,None,D06,r3,2021-05-02_14h13.09.465,subsecond_timing_v2,2021.1.2,Win32,59.95203837
space,1.586,space,4.771,,,large,0,42,42,42,1,5,0.2,False,None,D06,r3,2021-05-02_14h13.09.465,subsecond_timing_v2,2021.1.2,Win32,59.95203837
space,1.335,space,1.153,,,large,0,43,43,43,1,2,0.2,False,None,D06,r3,2021-05-02_14h13.09.465,subsecond_timing_v2,2021.1.2,Win32,59.95203837
space,1.035,space,5.907,,,large,0,44,44,44,1,6,0.1,False,None,D06,r3,2021-05-02_14h13.09.465,subsecond_timing_v2,2021.1.2,Win32,59.95203837
space,0.938,space,4.488,,,large,0,45,45,45,1,5.5,0.3,False,None,D06,r3,2021-05-02_14h13.09.465,subsecond_timing_v2,2021.1.2,Win32,59.95203837
space,0.902,space,1.919,,,large,0,46,46,46,1,2.5,0.1,False,None,D06,r3,2021-05-02_14h13.09.465,subsecond_timing_v2,2021.1.2,Win32,59.95203837
space,1.371,space,3.335,,,large,0,47,47,47,1,3.5,0.2,False,None,D06,r3,2021-05-02_14h13.09.465,subsecond_timing_v2,2021.1.2,Win32,59.95203837
space,1.088,space,3.322,,,large,0,48,48,48,1,4,0.1,False,None,D06,r3,2021-05-02_14h13.09.465,subsecond_timing_v2,2021.1.2,Win32,59.95203837
space,1.135,space,5.618,,,large,0,49,49,49,1,6,0.3,False,None,D06,r3,2021-05-02_14h13.09.465,subsecond_timing_v2,2021.1.2,Win32,59.95203837
space,1.239,space,1.569,,,large,0,50,50,50,1,2,0.3,False,None,D06,r3,2021-05-02_14h13.09.465,subsecond_timing_v2,2021.1.2,Win32,59.95203837
space,1.057,space,3.618,,,large,0,51,51,51,1,4.5,0.1,False,None,D06,r3,2021-05-02_14h13.09.465,subsecond_timing_v2,2021.1.2,Win32,59.95203837
space,1.085,space,5.703,,,large,0,52,52,52,1,5.5,0.3,False,None,D06,r3,2021-05-02_14h13.09.465,subsecond_timing_v2,2021.1.2,Win32,59.95203837
space,1.083,space,1.585,,,large,0,53,53,53,1,2.5,0.2,False,None,D06,r3,2021-05-02_14h13.09.465,subsecond_timing_v2,2021.1.2,Win32,59.95203837
space,1.219,space,2.419,,,large,0,54,54,54,1,3.5,0.2,False,None,D06,r3,2021-05-02_14h13.09.465,subsecond_timing_v2,2021.1.2,Win32,59.95203837
space,1.222,space,2.708,,,large,0,55,55,55,1,3,0.3,False,None,D06,r3,2021-05-02_14h13.09.465,subsecond_timing_v2,2021.1.2,Win32,59.95203837
space,1.049,space,4.655,,,large,0,56,56,56,1,5,0.3,False,None,D06,r3,2021-05-02_14h13.09.465,subsecond_timing_v2,2021.1.2,Win32,59.95203837
space,24.8,space,2.936,,,large,0,57,57,57,1,2,0.3,False,None,D06,r3,2021-05-02_14h13.09.465,subsecond_timing_v2,2021.1.2,Win32,59.95203837
space,1.669,space,4.42,,,large,0,58,58,58,1,4,0.2,False,None,D06,r3,2021-05-02_14h13.09.465,subsecond_timing_v2,2021.1.2,Win32,59.95203837
space,1.6,space,5.099,,,large,0,59,59,59,1,6,0.1,False,None,D06,r3,2021-05-02_14h13.09.465,subsecond_timing_v2,2021.1.2,Win32,59.95203837
space,1.051,space,5.335,,,large,0,60,60,60,1,5.5,0.2,False,None,D06,r3,2021-05-02_14h13.09.465,subsecond_timing_v2,2021.1.2,Win32,59.95203837
space,0.857,space,2.92,,,large,0,61,61,61,1,3.5,0.2,False,None,D06,r3,2021-05-02_14h13.09.465,subsecond_timing_v2,2021.1.2,Win32,59.95203837
space,1.12,space,4.902,,,large,0,62,62,62,1,5,0.2,False,None,D06,r3,2021-05-02_14h13.09.465,subsecond_timing_v2,2021.1.2,Win32,59.95203837
space,0.866,space,1.869,,,large,0,63,63,63,1,2.5,0.3,False,None,D06,r3,2021-05-02_14h13.09.465,subsecond_timing_v2,2021.1.2,Win32,59.95203837
space,0.935,space,2.784,,,large,0,64,64,64,1,3,0.1,False,None,D06,r3,2021-05-02_14h13.09.465,subsecond_timing_v2,2021.1.2,Win32,59.95203837
space,1.101,space,3.518,,,large,0,65,65,65,1,4.5,0.3,False,None,D06,r3,2021-05-02_14h13.09.465,subsecond_timing_v2,2021.1.2,Win32,59.95203837
space,0.984,space,4.919,,,large,0,66,66,66,1,5.5,0.3,False,None,D06,r3,2021-05-02_14h13.09.465,subsecond_timing_v2,2021.1.2,Win32,59.95203837
space,1.286,space,5.536,,,large,0,67,67,67,1,5,0.3,False,None,D06,r3,2021-05-02_14h13.09.465,subsecond_timing_v2,2021.1.2,Win32,59.95203837
space,0.973,space,2.274,,,large,0,68,68,68,1,3,0.2,False,None,D06,r3,2021-05-02_14h13.09.465,subsecond_timing_v2,2021.1.2,Win32,59.95203837
space,1.057,space,1.588,,,large,0,69,69,69,1,2.5,0.3,False,None,D06,r3,2021-05-02_14h13.09.465,subsecond_timing_v2,2021.1.2,Win32,59.95203837
space,1.618,space,5.001,,,large,0,70,70,70,1,6,0.1,False,None,D06,r3,2021-05-02_14h13.09.465,subsecond_timing_v2,2021.1.2,Win32,59.95203837
space,0.9,space,2.835,,,large,0,71,71,71,1,4,0.1,False,None,D06,r3,2021-05-02_14h13.09.465,subsecond_timing_v2,2021.1.2,Win32,59.95203837
space,0.975,space,1.553,,,large,0,72,72,72,1,2,0.1,False,None,D06,r3,2021-05-02_14h13.09.465,subsecond_timing_v2,2021.1.2,Win32,59.95203837
space,1.235,space,3.438,,,large,0,73,73,73,1,4.5,0.1,False,None,D06,r3,2021-05-02_14h13.09.465,subsecond_timing_v2,2021.1.2,Win32,59.95203837
space,18.673,space,1.684,,,large,0,74,74,74,1,3.5,0.3,False,None,D06,r3,2021-05-02_14h13.09.465,subsecond_timing_v2,2021.1.2,Win32,59.95203837
space,0.885,space,4.585,,,large,0,75,75,75,1,5.5,0.1,False,None,D06,r3,2021-05-02_14h13.09.465,subsecond_timing_v2,2021.1.2,Win32,59.95203837
space,0.985,space,5.121,,,large,0,76,76,76,1,6,0.2,False,None,D06,r3,2021-05-02_14h13.09.465,subsecond_timing_v2,2021.1.2,Win32,59.95203837
space,0.854,space,1.62,,,large,0,77,77,77,1,2.5,0.1,False,None,D06,r3,2021-05-02_14h13.09.465,subsecond_timing_v2,2021.1.2,Win32,59.95203837
space,1.105,space,4.303,,,large,0,78,78,78,1,5,0.1,False,None,D06,r3,2021-05-02_14h13.09.465,subsecond_timing_v2,2021.1.2,Win32,59.95203837
space,1.088,space,3.719,,,large,0,79,79,79,1,4,0.1,False,None,D06,r3,2021-05-02_14h13.09.465,subsecond_timing_v2,2021.1.2,Win32,59.95203837
space,0.853,space,2.783,,,large,0,80,80,80,1,3.5,0.1,False,None,D06,r3,2021-05-02_14h13.09.465,subsecond_timing_v2,2021.1.2,Win32,59.95203837
space,0.902,space,2.223,,,large,0,81,81,81,1,2,0.1,False,None,D06,r3,2021-05-02_14h13.09.465,subsecond_timing_v2,2021.1.2,Win32,59.95203837
space,0.97,space,3.573,,,large,0,82,82,82,1,4.5,0.1,False,None,D06,r3,2021-05-02_14h13.09.465,subsecond_timing_v2,2021.1.2,Win32,59.95203837
space,1.088,space,3.085,,,large,0,83,83,83,1,3,0.2,False,None,D06,r3,2021-05-02_14h13.09.465,subsecond_timing_v2,2021.1.2,Win32,59.95203837
space,1.135,space,1.835,,,large,0,84,84,84,1,2.5,0.2,False,None,D06,r3,2021-05-02_14h13.09.465,subsecond_timing_v2,2021.1.2,Win32,59.95203837
space,1.168,space,4.036,,,large,0,85,85,85,1,6,0.1,False,None,D06,r3,2021-05-02_14h13.09.465,subsecond_timing_v2,2021.1.2,Win32,59.95203837
space,1.101,space,4.718,,,large,0,86,86,86,1,5,0.3,False,None,D06,r3,2021-05-02_14h13.09.465,subsecond_timing_v2,2021.1.2,Win32,59.95203837
space,0.984,space,1.452,,,large,0,87,87,87,1,2,0.3,False,None,D06,r3,2021-05-02_14h13.09.465,subsecond_timing_v2,2021.1.2,Win32,59.95203837
space,1.17,space,3.269,,,large,0,88,88,88,1,4,0.3,False,None,D06,r3,2021-05-02_14h13.09.465,subsecond_timing_v2,2021.1.2,Win32,59.95203837
space,0.99,space,3.186,,,large,0,89,89,89,1,3.5,0.1,False,None,D06,r3,2021-05-02_14h13.09.465,subsecond_timing_v2,2021.1.2,Win32,59.95203837
space,0.684,space,3.425,,,large,0,90,90,90,1,4.5,0.1,False,None,D06,r3,2021-05-02_14h13.09.465,subsecond_timing_v2,2021.1.2,Win32,59.95203837
space,0.951,space,2.801,,,large,0,91,91,91,1,3,0.2,False,None,D06,r3,2021-05-02_14h13.09.465,subsecond_timing_v2,2021.1.2,Win32,59.95203837
space,1.135,space,5.289,,,large,0,92,92,92,1,5.5,0.3,False,None,D06,r3,2021-05-02_14h13.09.465,subsecond_timing_v2,2021.1.2,Win32,59.95203837
