key_resp_start.keys,key_resp_start.rt,key_resp_stop.keys,key_resp_stop.rt,feedback_range,hit,stimulus_range,trials.thisRepN,trials.thisTrialN,trials.thisN,trials.thisIndex,trials.ran,stimulus_duration,onset,feedback,feedback_range_fromfile,participant,session,date,expName,psychopyVersion,OS,frameRate
space,0.224605,space,1.07143,0.3,TRUE,Training,0,0,0,0,1,1,0.2,True,0.3,D09,r2,2021-05-03_21h02.59.428,subsecond_timing_v2,2021.1.2,Win32,59.86948452
space,0.558715,space,0.682525,0.3,TRUE,Training,0,1,1,1,1,0.75,0.2,True,0.3,D09,r2,2021-05-03_21h02.59.428,subsecond_timing_v2,2021.1.2,Win32,59.86948452
space,0.6103,space,0.468885,0.3,TRUE,Training,0,2,2,2,1,0.5,0.2,True,0.3,D09,r2,2021-05-03_21h02.59.428,subsecond_timing_v2,2021.1.2,Win32,59.86948452
space,0.807875,space,0.53605,0.3,TRUE,Training,0,3,3,3,1,0.5,0.3,True,0.3,D09,r2,2021-05-03_21h02.59.428,subsecond_timing_v2,2021.1.2,Win32,59.86948452
space,0.723345,space,0.53648,0.3,TRUE,Training,0,4,4,4,1,0.75,0.3,True,0.3,D09,r2,2021-05-03_21h02.59.428,subsecond_timing_v2,2021.1.2,Win32,59.86948452
space,1.4192,space,1.043475,0.3,TRUE,Training,0,5,5,5,1,1,0.3,True,0.3,D09,r2,2021-05-03_21h02.59.428,subsecond_timing_v2,2021.1.2,Win32,59.86948452
space,1.26413,space,1.507795,,,ms_large,0,6,6,6,1,1.165,0.2,False,None,D09,r2,2021-05-03_21h02.59.428,subsecond_timing_v2,2021.1.2,Win32,59.86948452
space,1.09259,space,1.156615,,,ms_large,0,7,7,7,1,1.094,0.3,False,None,D09,r2,2021-05-03_21h02.59.428,subsecond_timing_v2,2021.1.2,Win32,59.86948452
space,0.83316,space,1.665805,,,ms_large,0,8,8,8,1,1.2,0.3,False,None,D09,r2,2021-05-03_21h02.59.428,subsecond_timing_v2,2021.1.2,Win32,59.86948452
space,1.2342,space,1.339155,,,ms_large,0,9,9,9,1,1.024,0.1,False,None,D09,r2,2021-05-03_21h02.59.428,subsecond_timing_v2,2021.1.2,Win32,59.86948452
space,1.326615,space,0.627175,,,ms_large,0,10,10,10,1,0.953,0.3,False,None,D09,r2,2021-05-03_21h02.59.428,subsecond_timing_v2,2021.1.2,Win32,59.86948452
space,0.82394,space,0.766955,,,ms_large,0,11,11,11,1,0.847,0.1,False,None,D09,r2,2021-05-03_21h02.59.428,subsecond_timing_v2,2021.1.2,Win32,59.86948452
space,0.55271,space,0.857365,,,ms_large,0,12,12,12,1,0.882,0.3,False,None,D09,r2,2021-05-03_21h02.59.428,subsecond_timing_v2,2021.1.2,Win32,59.86948452
space,0.639615,space,1.95596,,,ms_large,0,13,13,13,1,1.129,0.1,False,None,D09,r2,2021-05-03_21h02.59.428,subsecond_timing_v2,2021.1.2,Win32,59.86948452
space,0.79528,space,0.83126,,,ms_large,0,14,14,14,1,1.059,0.3,False,None,D09,r2,2021-05-03_21h02.59.428,subsecond_timing_v2,2021.1.2,Win32,59.86948452
space,0.624815,space,0.734005,,,ms_large,0,15,15,15,1,0.918,0.3,False,None,D09,r2,2021-05-03_21h02.59.428,subsecond_timing_v2,2021.1.2,Win32,59.86948452
space,0.662845,space,1.443225,,,ms_large,0,16,16,16,1,0.988,0.1,False,None,D09,r2,2021-05-03_21h02.59.428,subsecond_timing_v2,2021.1.2,Win32,59.86948452
space,0.870045,space,0.841115,,,ms_large,0,17,17,17,1,0.953,0.2,False,None,D09,r2,2021-05-03_21h02.59.428,subsecond_timing_v2,2021.1.2,Win32,59.86948452
space,0.654585,space,1.10762,,,ms_large,0,18,18,18,1,1.129,0.3,False,None,D09,r2,2021-05-03_21h02.59.428,subsecond_timing_v2,2021.1.2,Win32,59.86948452
space,0.7764,space,0.790285,,,ms_large,0,19,19,19,1,0.988,0.2,False,None,D09,r2,2021-05-03_21h02.59.428,subsecond_timing_v2,2021.1.2,Win32,59.86948452
space,1.1473,space,1.242825,,,ms_large,0,20,20,20,1,1.024,0.1,False,None,D09,r2,2021-05-03_21h02.59.428,subsecond_timing_v2,2021.1.2,Win32,59.86948452
space,1.303745,space,1.24651,,,ms_large,0,21,21,21,1,1.165,0.1,False,None,D09,r2,2021-05-03_21h02.59.428,subsecond_timing_v2,2021.1.2,Win32,59.86948452
space,0.50742,space,1.125725,,,ms_large,0,22,22,22,1,1.2,0.1,False,None,D09,r2,2021-05-03_21h02.59.428,subsecond_timing_v2,2021.1.2,Win32,59.86948452
space,1.39617,space,1.17323,,,ms_large,0,23,23,23,1,0.882,0.2,False,None,D09,r2,2021-05-03_21h02.59.428,subsecond_timing_v2,2021.1.2,Win32,59.86948452
space,1.13226,space,0.840535,,,ms_large,0,24,24,24,1,0.847,0.3,False,None,D09,r2,2021-05-03_21h02.59.428,subsecond_timing_v2,2021.1.2,Win32,59.86948452
space,0.92622,space,1.067935,,,ms_large,0,25,25,25,1,1.094,0.1,False,None,D09,r2,2021-05-03_21h02.59.428,subsecond_timing_v2,2021.1.2,Win32,59.86948452
space,1.0173,space,0.801785,,,ms_large,0,26,26,26,1,1.059,0.1,False,None,D09,r2,2021-05-03_21h02.59.428,subsecond_timing_v2,2021.1.2,Win32,59.86948452
space,0.51659,space,0.76784,,,ms_large,0,27,27,27,1,0.918,0.3,False,None,D09,r2,2021-05-03_21h02.59.428,subsecond_timing_v2,2021.1.2,Win32,59.86948452
space,1.27147,space,1.02478,,,ms_large,0,28,28,28,1,0.988,0.2,False,None,D09,r2,2021-05-03_21h02.59.428,subsecond_timing_v2,2021.1.2,Win32,59.86948452
space,0.8851,space,0.940455,,,ms_large,0,29,29,29,1,1.165,0.2,False,None,D09,r2,2021-05-03_21h02.59.428,subsecond_timing_v2,2021.1.2,Win32,59.86948452
space,0.6308,space,1.009835,,,ms_large,0,30,30,30,1,1.129,0.1,False,None,D09,r2,2021-05-03_21h02.59.428,subsecond_timing_v2,2021.1.2,Win32,59.86948452
space,0.70468,space,0.922995,,,ms_large,0,31,31,31,1,1.059,0.1,False,None,D09,r2,2021-05-03_21h02.59.428,subsecond_timing_v2,2021.1.2,Win32,59.86948452
space,0.86716,space,0.906105,,,ms_large,0,32,32,32,1,0.918,0.3,False,None,D09,r2,2021-05-03_21h02.59.428,subsecond_timing_v2,2021.1.2,Win32,59.86948452
space,0.79989,space,1.105835,,,ms_large,0,33,33,33,1,1.2,0.3,False,None,D09,r2,2021-05-03_21h02.59.428,subsecond_timing_v2,2021.1.2,Win32,59.86948452
space,1.19667,space,0.66195,,,ms_large,0,34,34,34,1,0.847,0.1,False,None,D09,r2,2021-05-03_21h02.59.428,subsecond_timing_v2,2021.1.2,Win32,59.86948452
space,0.86734,space,0.762455,,,ms_large,0,35,35,35,1,1.024,0.1,False,None,D09,r2,2021-05-03_21h02.59.428,subsecond_timing_v2,2021.1.2,Win32,59.86948452
space,0.904525,space,0.62461,,,ms_large,0,36,36,36,1,0.882,0.1,False,None,D09,r2,2021-05-03_21h02.59.428,subsecond_timing_v2,2021.1.2,Win32,59.86948452
space,0.43907,space,1.07624,,,ms_large,0,37,37,37,1,1.094,0.2,False,None,D09,r2,2021-05-03_21h02.59.428,subsecond_timing_v2,2021.1.2,Win32,59.86948452
space,0.788395,space,0.94381,,,ms_large,0,38,38,38,1,0.953,0.1,False,None,D09,r2,2021-05-03_21h02.59.428,subsecond_timing_v2,2021.1.2,Win32,59.86948452
space,0.54418,space,0.973385,,,ms_large,0,39,39,39,1,1.165,0.2,False,None,D09,r2,2021-05-03_21h02.59.428,subsecond_timing_v2,2021.1.2,Win32,59.86948452
space,0.700725,space,1.04224,,,ms_large,0,40,40,40,1,0.953,0.1,False,None,D09,r2,2021-05-03_21h02.59.428,subsecond_timing_v2,2021.1.2,Win32,59.86948452
space,0.68516,space,0.94064,,,ms_large,0,41,41,41,1,0.988,0.1,False,None,D09,r2,2021-05-03_21h02.59.428,subsecond_timing_v2,2021.1.2,Win32,59.86948452
space,0.67043,space,0.988565,,,ms_large,0,42,42,42,1,1.094,0.1,False,None,D09,r2,2021-05-03_21h02.59.428,subsecond_timing_v2,2021.1.2,Win32,59.86948452
space,0.69298,space,0.91778,,,ms_large,0,43,43,43,1,1.129,0.3,False,None,D09,r2,2021-05-03_21h02.59.428,subsecond_timing_v2,2021.1.2,Win32,59.86948452
space,0.44743,space,1.467295,,,ms_large,0,44,44,44,1,0.882,0.2,False,None,D09,r2,2021-05-03_21h02.59.428,subsecond_timing_v2,2021.1.2,Win32,59.86948452
space,0.542895,space,1.070665,,,ms_large,0,45,45,45,1,1.2,0.1,False,None,D09,r2,2021-05-03_21h02.59.428,subsecond_timing_v2,2021.1.2,Win32,59.86948452
space,0.55637,space,0.91424,,,ms_large,0,46,46,46,1,1.024,0.1,False,None,D09,r2,2021-05-03_21h02.59.428,subsecond_timing_v2,2021.1.2,Win32,59.86948452
space,0.30011,space,1.18523,,,ms_large,0,47,47,47,1,0.918,0.2,False,None,D09,r2,2021-05-03_21h02.59.428,subsecond_timing_v2,2021.1.2,Win32,59.86948452
space,0.77322,space,0.940465,,,ms_large,0,48,48,48,1,0.847,0.1,False,None,D09,r2,2021-05-03_21h02.59.428,subsecond_timing_v2,2021.1.2,Win32,59.86948452
space,0.68584,space,0.729685,,,ms_large,0,49,49,49,1,1.059,0.3,False,None,D09,r2,2021-05-03_21h02.59.428,subsecond_timing_v2,2021.1.2,Win32,59.86948452
space,0.836755,space,0.82124,,,ms_large,0,50,50,50,1,0.953,0.2,False,None,D09,r2,2021-05-03_21h02.59.428,subsecond_timing_v2,2021.1.2,Win32,59.86948452
space,1.61813,space,0.95779,,,ms_large,0,51,51,51,1,1.024,0.3,False,None,D09,r2,2021-05-03_21h02.59.428,subsecond_timing_v2,2021.1.2,Win32,59.86948452
space,0.6342,space,1.00026,,,ms_large,0,52,52,52,1,1.165,0.3,False,None,D09,r2,2021-05-03_21h02.59.428,subsecond_timing_v2,2021.1.2,Win32,59.86948452
space,0.624295,space,0.89932,,,ms_large,0,53,53,53,1,0.847,0.3,False,None,D09,r2,2021-05-03_21h02.59.428,subsecond_timing_v2,2021.1.2,Win32,59.86948452
space,0.47398,space,0.886475,,,ms_large,0,54,54,54,1,1.2,0.1,False,None,D09,r2,2021-05-03_21h02.59.428,subsecond_timing_v2,2021.1.2,Win32,59.86948452
space,0.63015,space,0.916825,,,ms_large,0,55,55,55,1,0.988,0.3,False,None,D09,r2,2021-05-03_21h02.59.428,subsecond_timing_v2,2021.1.2,Win32,59.86948452
space,1.71607,space,0.9651,,,ms_large,0,56,56,56,1,0.882,0.1,False,None,D09,r2,2021-05-03_21h02.59.428,subsecond_timing_v2,2021.1.2,Win32,59.86948452
space,1.05807,space,0.97351,,,ms_large,0,57,57,57,1,1.059,0.1,False,None,D09,r2,2021-05-03_21h02.59.428,subsecond_timing_v2,2021.1.2,Win32,59.86948452
space,0.525755,space,0.95553,,,ms_large,0,58,58,58,1,1.094,0.1,False,None,D09,r2,2021-05-03_21h02.59.428,subsecond_timing_v2,2021.1.2,Win32,59.86948452
space,0.65158,space,0.970985,,,ms_large,0,59,59,59,1,1.129,0.3,False,None,D09,r2,2021-05-03_21h02.59.428,subsecond_timing_v2,2021.1.2,Win32,59.86948452
space,0.834115,space,1.28771,,,ms_large,0,60,60,60,1,0.918,0.3,False,None,D09,r2,2021-05-03_21h02.59.428,subsecond_timing_v2,2021.1.2,Win32,59.86948452
space,0.57168,space,0.87153,,,ms_large,0,61,61,61,1,1.129,0.1,False,None,D09,r2,2021-05-03_21h02.59.428,subsecond_timing_v2,2021.1.2,Win32,59.86948452
space,0.64471,space,1.01654,,,ms_large,0,62,62,62,1,1.165,0.3,False,None,D09,r2,2021-05-03_21h02.59.428,subsecond_timing_v2,2021.1.2,Win32,59.86948452
space,0.69345,space,0.954735,,,ms_large,0,63,63,63,1,0.953,0.2,False,None,D09,r2,2021-05-03_21h02.59.428,subsecond_timing_v2,2021.1.2,Win32,59.86948452
space,1.013455,space,1.082455,,,ms_large,0,64,64,64,1,1.094,0.2,False,None,D09,r2,2021-05-03_21h02.59.428,subsecond_timing_v2,2021.1.2,Win32,59.86948452
space,0.758815,space,0.5823,,,ms_large,0,65,65,65,1,0.882,0.1,False,None,D09,r2,2021-05-03_21h02.59.428,subsecond_timing_v2,2021.1.2,Win32,59.86948452
space,0.659275,space,0.84207,,,ms_large,0,66,66,66,1,0.918,0.2,False,None,D09,r2,2021-05-03_21h02.59.428,subsecond_timing_v2,2021.1.2,Win32,59.86948452
space,0.642795,space,0.9314,,,ms_large,0,67,67,67,1,0.988,0.1,False,None,D09,r2,2021-05-03_21h02.59.428,subsecond_timing_v2,2021.1.2,Win32,59.86948452
space,0.560425,space,0.87272,,,ms_large,0,68,68,68,1,1.024,0.1,False,None,D09,r2,2021-05-03_21h02.59.428,subsecond_timing_v2,2021.1.2,Win32,59.86948452
space,0.55707,space,1.05518,,,ms_large,0,69,69,69,1,1.2,0.1,False,None,D09,r2,2021-05-03_21h02.59.428,subsecond_timing_v2,2021.1.2,Win32,59.86948452
space,0.575865,space,0.894075,,,ms_large,0,70,70,70,1,1.059,0.1,False,None,D09,r2,2021-05-03_21h02.59.428,subsecond_timing_v2,2021.1.2,Win32,59.86948452
space,0.726435,space,0.654645,,,ms_large,0,71,71,71,1,0.847,0.1,False,None,D09,r2,2021-05-03_21h02.59.428,subsecond_timing_v2,2021.1.2,Win32,59.86948452
space,0.67782,space,0.803245,,,ms_large,0,72,72,72,1,1.094,0.2,False,None,D09,r2,2021-05-03_21h02.59.428,subsecond_timing_v2,2021.1.2,Win32,59.86948452
space,0.576905,space,0.98137,,,ms_large,0,73,73,73,1,0.918,0.3,False,None,D09,r2,2021-05-03_21h02.59.428,subsecond_timing_v2,2021.1.2,Win32,59.86948452
space,0.25048,space,1.1751,,,ms_large,0,74,74,74,1,0.953,0.2,False,None,D09,r2,2021-05-03_21h02.59.428,subsecond_timing_v2,2021.1.2,Win32,59.86948452
space,1.650555,space,0.998015,,,ms_large,0,75,75,75,1,0.882,0.2,False,None,D09,r2,2021-05-03_21h02.59.428,subsecond_timing_v2,2021.1.2,Win32,59.86948452
space,0.6949,space,0.18394,,,ms_large,0,76,76,76,1,0.988,0.3,False,None,D09,r2,2021-05-03_21h02.59.428,subsecond_timing_v2,2021.1.2,Win32,59.86948452
space,0.923855,space,0.9316,,,ms_large,0,77,77,77,1,1.2,0.1,False,None,D09,r2,2021-05-03_21h02.59.428,subsecond_timing_v2,2021.1.2,Win32,59.86948452
space,1.09687,space,1.001195,,,ms_large,0,78,78,78,1,1.024,0.2,False,None,D09,r2,2021-05-03_21h02.59.428,subsecond_timing_v2,2021.1.2,Win32,59.86948452
space,0.759475,space,2.003795,,,ms_large,0,79,79,79,1,1.129,0.1,False,None,D09,r2,2021-05-03_21h02.59.428,subsecond_timing_v2,2021.1.2,Win32,59.86948452
space,0.818875,space,0.897675,,,ms_large,0,80,80,80,1,1.165,0.3,False,None,D09,r2,2021-05-03_21h02.59.428,subsecond_timing_v2,2021.1.2,Win32,59.86948452
space,1.008285,space,1.8708,,,ms_large,0,81,81,81,1,1.059,0.2,False,None,D09,r2,2021-05-03_21h02.59.428,subsecond_timing_v2,2021.1.2,Win32,59.86948452
space,0.957615,space,0.92194,,,ms_large,0,82,82,82,1,0.847,0.1,False,None,D09,r2,2021-05-03_21h02.59.428,subsecond_timing_v2,2021.1.2,Win32,59.86948452
space,1.05245,space,0.954535,,,ms_large,0,83,83,83,1,1.024,0.1,False,None,D09,r2,2021-05-03_21h02.59.428,subsecond_timing_v2,2021.1.2,Win32,59.86948452
space,0.979265,space,0.835045,,,ms_large,0,84,84,84,1,1.059,0.3,False,None,D09,r2,2021-05-03_21h02.59.428,subsecond_timing_v2,2021.1.2,Win32,59.86948452
space,0.99987,space,0.87173,,,ms_large,0,85,85,85,1,0.918,0.1,False,None,D09,r2,2021-05-03_21h02.59.428,subsecond_timing_v2,2021.1.2,Win32,59.86948452
space,0.143965,space,0.98832,,,ms_large,0,86,86,86,1,1.165,0.1,False,None,D09,r2,2021-05-03_21h02.59.428,subsecond_timing_v2,2021.1.2,Win32,59.86948452
space,1.38556,space,0.799945,,,ms_large,0,87,87,87,1,0.953,0.1,False,None,D09,r2,2021-05-03_21h02.59.428,subsecond_timing_v2,2021.1.2,Win32,59.86948452
space,1.27679,space,0.957965,,,ms_large,0,88,88,88,1,0.882,0.1,False,None,D09,r2,2021-05-03_21h02.59.428,subsecond_timing_v2,2021.1.2,Win32,59.86948452
space,1.104445,space,0.7348,,,ms_large,0,89,89,89,1,0.847,0.1,False,None,D09,r2,2021-05-03_21h02.59.428,subsecond_timing_v2,2021.1.2,Win32,59.86948452
space,0.817305,space,0.871815,,,ms_large,0,90,90,90,1,1.094,0.1,False,None,D09,r2,2021-05-03_21h02.59.428,subsecond_timing_v2,2021.1.2,Win32,59.86948452
space,1.391535,space,1.09101,,,ms_large,0,91,91,91,1,1.129,0.2,False,None,D09,r2,2021-05-03_21h02.59.428,subsecond_timing_v2,2021.1.2,Win32,59.86948452
space,1.069745,space,0.93254,,,ms_large,0,92,92,92,1,1.2,0.1,False,None,D09,r2,2021-05-03_21h02.59.428,subsecond_timing_v2,2021.1.2,Win32,59.86948452
space,1.020055,space,0.83921,,,ms_large,0,93,93,93,1,0.988,0.1,False,None,D09,r2,2021-05-03_21h02.59.428,subsecond_timing_v2,2021.1.2,Win32,59.86948452
space,1.184235,space,1.23695,,,ms_large,0,94,94,94,1,1.129,0.3,False,None,D09,r2,2021-05-03_21h02.59.428,subsecond_timing_v2,2021.1.2,Win32,59.86948452
space,1.03613,space,0.92206,,,ms_large,0,95,95,95,1,1.165,0.2,False,None,D09,r2,2021-05-03_21h02.59.428,subsecond_timing_v2,2021.1.2,Win32,59.86948452
space,1.344255,space,0.873395,,,ms_large,0,96,96,96,1,1.024,0.3,False,None,D09,r2,2021-05-03_21h02.59.428,subsecond_timing_v2,2021.1.2,Win32,59.86948452
space,1.068195,space,0.853635,,,ms_large,0,97,97,97,1,1.094,0.1,False,None,D09,r2,2021-05-03_21h02.59.428,subsecond_timing_v2,2021.1.2,Win32,59.86948452
space,0.86686,space,0.890615,,,ms_large,0,98,98,98,1,1.059,0.2,False,None,D09,r2,2021-05-03_21h02.59.428,subsecond_timing_v2,2021.1.2,Win32,59.86948452
space,1.0076,space,0.93989,,,ms_large,0,99,99,99,1,1.2,0.1,False,None,D09,r2,2021-05-03_21h02.59.428,subsecond_timing_v2,2021.1.2,Win32,59.86948452
space,1.060965,space,0.81961,,,ms_large,0,100,100,100,1,0.882,0.3,False,None,D09,r2,2021-05-03_21h02.59.428,subsecond_timing_v2,2021.1.2,Win32,59.86948452
space,0.8616,space,0.856315,,,ms_large,0,101,101,101,1,0.918,0.3,False,None,D09,r2,2021-05-03_21h02.59.428,subsecond_timing_v2,2021.1.2,Win32,59.86948452
space,0.85182,space,0.840785,,,ms_large,0,102,102,102,1,0.988,0.3,False,None,D09,r2,2021-05-03_21h02.59.428,subsecond_timing_v2,2021.1.2,Win32,59.86948452
space,1.03574,space,1.501295,,,ms_large,0,103,103,103,1,0.847,0.1,False,None,D09,r2,2021-05-03_21h02.59.428,subsecond_timing_v2,2021.1.2,Win32,59.86948452
space,1.06377,space,0.887835,,,ms_large,0,104,104,104,1,0.953,0.3,False,None,D09,r2,2021-05-03_21h02.59.428,subsecond_timing_v2,2021.1.2,Win32,59.86948452
space,1.998315,space,0.871315,,,ms_large,0,105,105,105,1,0.847,0.3,False,None,D09,r2,2021-05-03_21h02.59.428,subsecond_timing_v2,2021.1.2,Win32,59.86948452
space,0.84274,space,0.974385,,,ms_large,0,106,106,106,1,1.094,0.3,False,None,D09,r2,2021-05-03_21h02.59.428,subsecond_timing_v2,2021.1.2,Win32,59.86948452
space,1.09583,space,1.45967,,,ms_large,0,107,107,107,1,1.129,0.3,False,None,D09,r2,2021-05-03_21h02.59.428,subsecond_timing_v2,2021.1.2,Win32,59.86948452
space,1.119255,space,0.74067,,,ms_large,0,108,108,108,1,0.882,0.3,False,None,D09,r2,2021-05-03_21h02.59.428,subsecond_timing_v2,2021.1.2,Win32,59.86948452
space,1.01046,space,0.787015,,,ms_large,0,109,109,109,1,0.953,0.2,False,None,D09,r2,2021-05-03_21h02.59.428,subsecond_timing_v2,2021.1.2,Win32,59.86948452
space,1.050655,space,0.841205,,,ms_large,0,110,110,110,1,0.988,0.1,False,None,D09,r2,2021-05-03_21h02.59.428,subsecond_timing_v2,2021.1.2,Win32,59.86948452
space,0.84477,space,0.8344,,,ms_large,0,111,111,111,1,1.165,0.3,False,None,D09,r2,2021-05-03_21h02.59.428,subsecond_timing_v2,2021.1.2,Win32,59.86948452
space,0.9365,space,0.804345,,,ms_large,0,112,112,112,1,0.918,0.2,False,None,D09,r2,2021-05-03_21h02.59.428,subsecond_timing_v2,2021.1.2,Win32,59.86948452
space,0.943565,space,1.0858,,,ms_large,0,113,113,113,1,1.059,0.3,False,None,D09,r2,2021-05-03_21h02.59.428,subsecond_timing_v2,2021.1.2,Win32,59.86948452
space,1.156995,space,1.221505,,,ms_large,0,114,114,114,1,1.2,0.2,False,None,D09,r2,2021-05-03_21h02.59.428,subsecond_timing_v2,2021.1.2,Win32,59.86948452
space,1.67916,space,0.771225,,,ms_large,0,115,115,115,1,1.024,0.3,False,None,D09,r2,2021-05-03_21h02.59.428,subsecond_timing_v2,2021.1.2,Win32,59.86948452
space,1.085195,space,1.13801,,,ms_large,0,116,116,116,1,1.129,0.3,False,None,D09,r2,2021-05-03_21h02.59.428,subsecond_timing_v2,2021.1.2,Win32,59.86948452
space,0.959685,space,1.02271,,,ms_large,0,117,117,117,1,1.2,0.3,False,None,D09,r2,2021-05-03_21h02.59.428,subsecond_timing_v2,2021.1.2,Win32,59.86948452
space,1.025445,space,0.938625,,,ms_large,0,118,118,118,1,1.024,0.3,False,None,D09,r2,2021-05-03_21h02.59.428,subsecond_timing_v2,2021.1.2,Win32,59.86948452
space,0.993365,space,0.94036,,,ms_large,0,119,119,119,1,1.094,0.1,False,None,D09,r2,2021-05-03_21h02.59.428,subsecond_timing_v2,2021.1.2,Win32,59.86948452
space,0.98545,space,0.908115,,,ms_large,0,120,120,120,1,1.059,0.1,False,None,D09,r2,2021-05-03_21h02.59.428,subsecond_timing_v2,2021.1.2,Win32,59.86948452
space,0.98362,space,0.854325,,,ms_large,0,121,121,121,1,0.988,0.2,False,None,D09,r2,2021-05-03_21h02.59.428,subsecond_timing_v2,2021.1.2,Win32,59.86948452
space,1.051945,space,0.86971,,,ms_large,0,122,122,122,1,0.847,0.3,False,None,D09,r2,2021-05-03_21h02.59.428,subsecond_timing_v2,2021.1.2,Win32,59.86948452
space,0.962645,space,1.074275,,,ms_large,0,123,123,123,1,0.953,0.2,False,None,D09,r2,2021-05-03_21h02.59.428,subsecond_timing_v2,2021.1.2,Win32,59.86948452
space,0.93816,space,0.858235,,,ms_large,0,124,124,124,1,0.918,0.2,False,None,D09,r2,2021-05-03_21h02.59.428,subsecond_timing_v2,2021.1.2,Win32,59.86948452
space,0.79379,space,1.1503,,,ms_large,0,125,125,125,1,1.165,0.2,False,None,D09,r2,2021-05-03_21h02.59.428,subsecond_timing_v2,2021.1.2,Win32,59.86948452
space,0.071735,space,1.27393,,,ms_large,0,126,126,126,1,0.882,0.3,False,None,D09,r2,2021-05-03_21h02.59.428,subsecond_timing_v2,2021.1.2,Win32,59.86948452
space,1.034295,space,0.88133,,,ms_large,0,127,127,127,1,0.882,0.2,False,None,D09,r2,2021-05-03_21h02.59.428,subsecond_timing_v2,2021.1.2,Win32,59.86948452
space,0.823115,space,0.919345,,,ms_large,0,128,128,128,1,1.094,0.2,False,None,D09,r2,2021-05-03_21h02.59.428,subsecond_timing_v2,2021.1.2,Win32,59.86948452
space,1.724465,space,0.90341,,,ms_large,0,129,129,129,1,1.024,0.3,False,None,D09,r2,2021-05-03_21h02.59.428,subsecond_timing_v2,2021.1.2,Win32,59.86948452
space,1.32239,space,0.79826,,,ms_large,0,130,130,130,1,0.847,0.1,False,None,D09,r2,2021-05-03_21h02.59.428,subsecond_timing_v2,2021.1.2,Win32,59.86948452
space,0.737075,space,0.82465,,,ms_large,0,131,131,131,1,1.2,0.1,False,None,D09,r2,2021-05-03_21h02.59.428,subsecond_timing_v2,2021.1.2,Win32,59.86948452
space,0.98821,space,0.78418,,,ms_large,0,132,132,132,1,1.059,0.3,False,None,D09,r2,2021-05-03_21h02.59.428,subsecond_timing_v2,2021.1.2,Win32,59.86948452
space,1.045625,space,0.70848,,,ms_large,0,133,133,133,1,0.918,0.1,False,None,D09,r2,2021-05-03_21h02.59.428,subsecond_timing_v2,2021.1.2,Win32,59.86948452
space,1.07745,space,1.04238,,,ms_large,0,134,134,134,1,1.129,0.3,False,None,D09,r2,2021-05-03_21h02.59.428,subsecond_timing_v2,2021.1.2,Win32,59.86948452
space,1.08923,space,1.21286,,,ms_large,0,135,135,135,1,1.165,0.2,False,None,D09,r2,2021-05-03_21h02.59.428,subsecond_timing_v2,2021.1.2,Win32,59.86948452
space,1.060765,space,1.019095,,,ms_large,0,136,136,136,1,0.953,0.1,False,None,D09,r2,2021-05-03_21h02.59.428,subsecond_timing_v2,2021.1.2,Win32,59.86948452
space,1.017625,space,0.85423,,,ms_large,0,137,137,137,1,0.988,0.3,False,None,D09,r2,2021-05-03_21h02.59.428,subsecond_timing_v2,2021.1.2,Win32,59.86948452
space,1.101435,space,0.90092,,,ms_large,0,138,138,138,1,0.847,0.1,False,None,D09,r2,2021-05-03_21h02.59.428,subsecond_timing_v2,2021.1.2,Win32,59.86948452
space,0.841495,space,0.80365,,,ms_large,0,139,139,139,1,0.882,0.1,False,None,D09,r2,2021-05-03_21h02.59.428,subsecond_timing_v2,2021.1.2,Win32,59.86948452
space,0.76934,space,0.836795,,,ms_large,0,140,140,140,1,0.988,0.3,False,None,D09,r2,2021-05-03_21h02.59.428,subsecond_timing_v2,2021.1.2,Win32,59.86948452
space,0.82759,space,0.823945,,,ms_large,0,141,141,141,1,0.953,0.1,False,None,D09,r2,2021-05-03_21h02.59.428,subsecond_timing_v2,2021.1.2,Win32,59.86948452
space,0.79064,space,0.62111,,,ms_large,0,142,142,142,1,1.165,0.2,False,None,D09,r2,2021-05-03_21h02.59.428,subsecond_timing_v2,2021.1.2,Win32,59.86948452
space,1.140845,space,1.1066,,,ms_large,0,143,143,143,1,1.059,0.3,False,None,D09,r2,2021-05-03_21h02.59.428,subsecond_timing_v2,2021.1.2,Win32,59.86948452
space,1.00811,space,0.92145,,,ms_large,0,144,144,144,1,1.2,0.1,False,None,D09,r2,2021-05-03_21h02.59.428,subsecond_timing_v2,2021.1.2,Win32,59.86948452
space,0.93509,space,0.842015,,,ms_large,0,145,145,145,1,1.094,0.2,False,None,D09,r2,2021-05-03_21h02.59.428,subsecond_timing_v2,2021.1.2,Win32,59.86948452
space,0.65936,space,0.96767,,,ms_large,0,146,146,146,1,1.024,0.3,False,None,D09,r2,2021-05-03_21h02.59.428,subsecond_timing_v2,2021.1.2,Win32,59.86948452
space,0.988735,space,0.60464,,,ms_large,0,147,147,147,1,0.918,0.2,False,None,D09,r2,2021-05-03_21h02.59.428,subsecond_timing_v2,2021.1.2,Win32,59.86948452
space,0.997185,space,1.13891,,,ms_large,0,148,148,148,1,1.129,0.3,False,None,D09,r2,2021-05-03_21h02.59.428,subsecond_timing_v2,2021.1.2,Win32,59.86948452
space,1.03575,space,1.14033,,,ms_large,0,149,149,149,1,1.165,0.3,False,None,D09,r2,2021-05-03_21h02.59.428,subsecond_timing_v2,2021.1.2,Win32,59.86948452
space,0.976485,space,0.790085,,,ms_large,0,150,150,150,1,0.882,0.1,False,None,D09,r2,2021-05-03_21h02.59.428,subsecond_timing_v2,2021.1.2,Win32,59.86948452
space,2.930435,space,1.182005,,,ms_large,0,151,151,151,1,1.2,0.2,False,None,D09,r2,2021-05-03_21h02.59.428,subsecond_timing_v2,2021.1.2,Win32,59.86948452
space,0.962275,space,0.79024,,,ms_large,0,152,152,152,1,0.953,0.3,False,None,D09,r2,2021-05-03_21h02.59.428,subsecond_timing_v2,2021.1.2,Win32,59.86948452
space,0.70137,space,0.72166,,,ms_large,0,153,153,153,1,1.059,0.3,False,None,D09,r2,2021-05-03_21h02.59.428,subsecond_timing_v2,2021.1.2,Win32,59.86948452
space,0.85436,space,0.82294,,,ms_large,0,154,154,154,1,0.918,0.2,False,None,D09,r2,2021-05-03_21h02.59.428,subsecond_timing_v2,2021.1.2,Win32,59.86948452
space,0.74341,space,0.74314,,,ms_large,0,155,155,155,1,0.847,0.2,False,None,D09,r2,2021-05-03_21h02.59.428,subsecond_timing_v2,2021.1.2,Win32,59.86948452
space,0.95058,space,0.845065,,,ms_large,0,156,156,156,1,1.129,0.3,False,None,D09,r2,2021-05-03_21h02.59.428,subsecond_timing_v2,2021.1.2,Win32,59.86948452
space,0.87154,space,0.91199,,,ms_large,0,157,157,157,1,1.024,0.1,False,None,D09,r2,2021-05-03_21h02.59.428,subsecond_timing_v2,2021.1.2,Win32,59.86948452
space,1.140605,space,0.924325,,,ms_large,0,158,158,158,1,0.988,0.2,False,None,D09,r2,2021-05-03_21h02.59.428,subsecond_timing_v2,2021.1.2,Win32,59.86948452
space,0.89551,space,1.307505,,,ms_large,0,159,159,159,1,1.094,0.2,False,None,D09,r2,2021-05-03_21h02.59.428,subsecond_timing_v2,2021.1.2,Win32,59.86948452
space,0.436105,space,0.90611,,,ms_large,0,160,160,160,1,1.129,0.2,False,None,D09,r2,2021-05-03_21h02.59.428,subsecond_timing_v2,2021.1.2,Win32,59.86948452
space,1.143765,space,1.004155,,,ms_large,0,161,161,161,1,0.953,0.2,False,None,D09,r2,2021-05-03_21h02.59.428,subsecond_timing_v2,2021.1.2,Win32,59.86948452
space,1.23575,space,0.807295,,,ms_large,0,162,162,162,1,0.847,0.3,False,None,D09,r2,2021-05-03_21h02.59.428,subsecond_timing_v2,2021.1.2,Win32,59.86948452
space,1.00007,space,0.724365,,,ms_large,0,163,163,163,1,0.988,0.1,False,None,D09,r2,2021-05-03_21h02.59.428,subsecond_timing_v2,2021.1.2,Win32,59.86948452
space,0.800805,space,0.505515,,,ms_large,0,164,164,164,1,0.882,0.1,False,None,D09,r2,2021-05-03_21h02.59.428,subsecond_timing_v2,2021.1.2,Win32,59.86948452
space,0.875555,space,0.78769,,,ms_large,0,165,165,165,1,1.094,0.1,False,None,D09,r2,2021-05-03_21h02.59.428,subsecond_timing_v2,2021.1.2,Win32,59.86948452
space,0.9865,space,0.85101,,,ms_large,0,166,166,166,1,0.918,0.2,False,None,D09,r2,2021-05-03_21h02.59.428,subsecond_timing_v2,2021.1.2,Win32,59.86948452
space,0.802395,space,0.94822,,,ms_large,0,167,167,167,1,1.024,0.3,False,None,D09,r2,2021-05-03_21h02.59.428,subsecond_timing_v2,2021.1.2,Win32,59.86948452
space,0.77864,space,0.70712,,,ms_large,0,168,168,168,1,1.059,0.1,False,None,D09,r2,2021-05-03_21h02.59.428,subsecond_timing_v2,2021.1.2,Win32,59.86948452
space,0.938685,space,0.788785,,,ms_large,0,169,169,169,1,1.2,0.3,False,None,D09,r2,2021-05-03_21h02.59.428,subsecond_timing_v2,2021.1.2,Win32,59.86948452
space,0.912835,space,1.416775,,,ms_large,0,170,170,170,1,1.165,0.3,False,None,D09,r2,2021-05-03_21h02.59.428,subsecond_timing_v2,2021.1.2,Win32,59.86948452
space,0.828615,space,1.30673,,,ms_large,0,171,171,171,1,1.094,0.1,False,None,D09,r2,2021-05-03_21h02.59.428,subsecond_timing_v2,2021.1.2,Win32,59.86948452
space,1.161175,space,1.03783,,,ms_large,0,172,172,172,1,1.024,0.1,False,None,D09,r2,2021-05-03_21h02.59.428,subsecond_timing_v2,2021.1.2,Win32,59.86948452
space,1.304495,space,0.87446,,,ms_large,0,173,173,173,1,0.988,0.2,False,None,D09,r2,2021-05-03_21h02.59.428,subsecond_timing_v2,2021.1.2,Win32,59.86948452
space,0.685965,space,0.953155,,,ms_large,0,174,174,174,1,1.165,0.3,False,None,D09,r2,2021-05-03_21h02.59.428,subsecond_timing_v2,2021.1.2,Win32,59.86948452
space,0.8418,space,0.96537,,,ms_large,0,175,175,175,1,0.847,0.1,False,None,D09,r2,2021-05-03_21h02.59.428,subsecond_timing_v2,2021.1.2,Win32,59.86948452
space,0.63353,space,0.97319,,,ms_large,0,176,176,176,1,1.2,0.1,False,None,D09,r2,2021-05-03_21h02.59.428,subsecond_timing_v2,2021.1.2,Win32,59.86948452
space,0.574175,space,1.155165,,,ms_large,0,177,177,177,1,0.882,0.1,False,None,D09,r2,2021-05-03_21h02.59.428,subsecond_timing_v2,2021.1.2,Win32,59.86948452
space,0.51415,space,0.965335,,,ms_large,0,178,178,178,1,1.129,0.1,False,None,D09,r2,2021-05-03_21h02.59.428,subsecond_timing_v2,2021.1.2,Win32,59.86948452
space,0.721605,space,0.81392,,,ms_large,0,179,179,179,1,0.953,0.1,False,None,D09,r2,2021-05-03_21h02.59.428,subsecond_timing_v2,2021.1.2,Win32,59.86948452
space,0.60082,space,0.942235,,,ms_large,0,180,180,180,1,0.918,0.3,False,None,D09,r2,2021-05-03_21h02.59.428,subsecond_timing_v2,2021.1.2,Win32,59.86948452
space,1.09135,space,0.992785,,,ms_large,0,181,181,181,1,1.059,0.2,False,None,D09,r2,2021-05-03_21h02.59.428,subsecond_timing_v2,2021.1.2,Win32,59.86948452
space,1.617895,space,0.950705,,,ms_large,0,182,182,182,1,1.165,0.1,False,None,D09,r2,2021-05-03_21h02.59.428,subsecond_timing_v2,2021.1.2,Win32,59.86948452
space,1.0352,space,1.20101,,,ms_large,0,183,183,183,1,1.024,0.3,False,None,D09,r2,2021-05-03_21h02.59.428,subsecond_timing_v2,2021.1.2,Win32,59.86948452
space,0.50651,space,0.95695,,,ms_large,0,184,184,184,1,1.2,0.2,False,None,D09,r2,2021-05-03_21h02.59.428,subsecond_timing_v2,2021.1.2,Win32,59.86948452
space,0.637165,space,0.96463,,,ms_large,0,185,185,185,1,0.882,0.3,False,None,D09,r2,2021-05-03_21h02.59.428,subsecond_timing_v2,2021.1.2,Win32,59.86948452
space,0.79251,space,1.30835,,,ms_large,0,186,186,186,1,1.129,0.3,False,None,D09,r2,2021-05-03_21h02.59.428,subsecond_timing_v2,2021.1.2,Win32,59.86948452
space,0.92357,space,0.956585,,,ms_large,0,187,187,187,1,0.953,0.1,False,None,D09,r2,2021-05-03_21h02.59.428,subsecond_timing_v2,2021.1.2,Win32,59.86948452
space,0.96739,space,0.8722,,,ms_large,0,188,188,188,1,0.988,0.1,False,None,D09,r2,2021-05-03_21h02.59.428,subsecond_timing_v2,2021.1.2,Win32,59.86948452
space,0.80322,space,0.932575,,,ms_large,0,189,189,189,1,0.918,0.3,False,None,D09,r2,2021-05-03_21h02.59.428,subsecond_timing_v2,2021.1.2,Win32,59.86948452
space,0.76143,space,0.940695,,,ms_large,0,190,190,190,1,1.059,0.2,False,None,D09,r2,2021-05-03_21h02.59.428,subsecond_timing_v2,2021.1.2,Win32,59.86948452
space,0.836605,space,1.174085,,,ms_large,0,191,191,191,1,0.847,0.3,False,None,D09,r2,2021-05-03_21h02.59.428,subsecond_timing_v2,2021.1.2,Win32,59.86948452
space,0.789185,space,0.95653,,,ms_large,0,192,192,192,1,1.094,0.3,False,None,D09,r2,2021-05-03_21h02.59.428,subsecond_timing_v2,2021.1.2,Win32,59.86948452
space,0.80678,space,0.88201,,,ms_large,0,193,193,193,1,0.847,0.1,False,None,D09,r2,2021-05-03_21h02.59.428,subsecond_timing_v2,2021.1.2,Win32,59.86948452
space,0.817445,space,0.73656,,,ms_large,0,194,194,194,1,1.2,0.2,False,None,D09,r2,2021-05-03_21h02.59.428,subsecond_timing_v2,2021.1.2,Win32,59.86948452
space,0.769305,space,0.64029,,,ms_large,0,195,195,195,1,0.918,0.3,False,None,D09,r2,2021-05-03_21h02.59.428,subsecond_timing_v2,2021.1.2,Win32,59.86948452
space,0.641055,space,0.652175,,,ms_large,0,196,196,196,1,1.024,0.2,False,None,D09,r2,2021-05-03_21h02.59.428,subsecond_timing_v2,2021.1.2,Win32,59.86948452
space,0.250745,space,0.68773,,,ms_large,0,197,197,197,1,1.094,0.1,False,None,D09,r2,2021-05-03_21h02.59.428,subsecond_timing_v2,2021.1.2,Win32,59.86948452
space,0.159685,space,0.606695,,,ms_large,0,198,198,198,1,0.953,0.1,False,None,D09,r2,2021-05-03_21h02.59.428,subsecond_timing_v2,2021.1.2,Win32,59.86948452
space,0.81735,space,0.814615,,,ms_large,0,199,199,199,1,1.129,0.3,False,None,D09,r2,2021-05-03_21h02.59.428,subsecond_timing_v2,2021.1.2,Win32,59.86948452
space,0.821675,space,0.655965,,,ms_large,0,200,200,200,1,0.988,0.1,False,None,D09,r2,2021-05-03_21h02.59.428,subsecond_timing_v2,2021.1.2,Win32,59.86948452
space,0.7832,space,1.618085,,,ms_large,0,201,201,201,1,0.882,0.3,False,None,D09,r2,2021-05-03_21h02.59.428,subsecond_timing_v2,2021.1.2,Win32,59.86948452
space,0.827415,space,0.756365,,,ms_large,0,202,202,202,1,1.059,0.3,False,None,D09,r2,2021-05-03_21h02.59.428,subsecond_timing_v2,2021.1.2,Win32,59.86948452
space,0.897235,space,0.98042,,,ms_large,0,203,203,203,1,1.165,0.2,False,None,D09,r2,2021-05-03_21h02.59.428,subsecond_timing_v2,2021.1.2,Win32,59.86948452
space,0.64704,space,0.855235,,,ms_large,0,204,204,204,1,0.953,0.2,False,None,D09,r2,2021-05-03_21h02.59.428,subsecond_timing_v2,2021.1.2,Win32,59.86948452
space,1.07139,space,1.060475,,,ms_large,0,205,205,205,1,1.094,0.3,False,None,D09,r2,2021-05-03_21h02.59.428,subsecond_timing_v2,2021.1.2,Win32,59.86948452
space,0.87446,space,1.08815,,,ms_large,0,206,206,206,1,1.2,0.2,False,None,D09,r2,2021-05-03_21h02.59.428,subsecond_timing_v2,2021.1.2,Win32,59.86948452
space,0.80105,space,1.13759,,,ms_large,0,207,207,207,1,1.024,0.1,False,None,D09,r2,2021-05-03_21h02.59.428,subsecond_timing_v2,2021.1.2,Win32,59.86948452
space,0.76752,space,0.637105,,,ms_large,0,208,208,208,1,0.847,0.3,False,None,D09,r2,2021-05-03_21h02.59.428,subsecond_timing_v2,2021.1.2,Win32,59.86948452
space,0.767095,space,0.89063,,,ms_large,0,209,209,209,1,1.129,0.2,False,None,D09,r2,2021-05-03_21h02.59.428,subsecond_timing_v2,2021.1.2,Win32,59.86948452
space,0.17185,space,0.98525,,,ms_large,0,210,210,210,1,1.165,0.3,False,None,D09,r2,2021-05-03_21h02.59.428,subsecond_timing_v2,2021.1.2,Win32,59.86948452
space,0.96097,space,0.898475,,,ms_large,0,211,211,211,1,0.988,0.3,False,None,D09,r2,2021-05-03_21h02.59.428,subsecond_timing_v2,2021.1.2,Win32,59.86948452
space,0.93608,space,0.71533,,,ms_large,0,212,212,212,1,0.882,0.3,False,None,D09,r2,2021-05-03_21h02.59.428,subsecond_timing_v2,2021.1.2,Win32,59.86948452
space,0.750195,space,0.805525,,,ms_large,0,213,213,213,1,1.059,0.2,False,None,D09,r2,2021-05-03_21h02.59.428,subsecond_timing_v2,2021.1.2,Win32,59.86948452
space,0.82113,space,0.767675,,,ms_large,0,214,214,214,1,0.918,0.3,False,None,D09,r2,2021-05-03_21h02.59.428,subsecond_timing_v2,2021.1.2,Win32,59.86948452
space,0.800975,space,0.72234,,,ms_large,0,215,215,215,1,0.953,0.2,False,None,D09,r2,2021-05-03_21h02.59.428,subsecond_timing_v2,2021.1.2,Win32,59.86948452
space,0.833845,space,0.717325,,,ms_large,0,216,216,216,1,0.847,0.3,False,None,D09,r2,2021-05-03_21h02.59.428,subsecond_timing_v2,2021.1.2,Win32,59.86948452
space,0.74467,space,0.734695,,,ms_large,0,217,217,217,1,1.024,0.1,False,None,D09,r2,2021-05-03_21h02.59.428,subsecond_timing_v2,2021.1.2,Win32,59.86948452
space,0.76,space,0.787845,,,ms_large,0,218,218,218,1,1.059,0.3,False,None,D09,r2,2021-05-03_21h02.59.428,subsecond_timing_v2,2021.1.2,Win32,59.86948452
space,0.82657,space,0.805135,,,ms_large,0,219,219,219,1,0.988,0.1,False,None,D09,r2,2021-05-03_21h02.59.428,subsecond_timing_v2,2021.1.2,Win32,59.86948452
space,0.847105,space,0.799415,,,ms_large,0,220,220,220,1,1.094,0.1,False,None,D09,r2,2021-05-03_21h02.59.428,subsecond_timing_v2,2021.1.2,Win32,59.86948452
space,0.97671,space,0.786775,,,ms_large,0,221,221,221,1,0.918,0.3,False,None,D09,r2,2021-05-03_21h02.59.428,subsecond_timing_v2,2021.1.2,Win32,59.86948452
space,0.96332,space,0.791135,,,ms_large,0,222,222,222,1,0.882,0.1,False,None,D09,r2,2021-05-03_21h02.59.428,subsecond_timing_v2,2021.1.2,Win32,59.86948452
space,1.084445,space,1.222035,,,ms_large,0,223,223,223,1,1.129,0.2,False,None,D09,r2,2021-05-03_21h02.59.428,subsecond_timing_v2,2021.1.2,Win32,59.86948452
space,1.18367,space,1.22425,,,ms_large,0,224,224,224,1,1.165,0.3,False,None,D09,r2,2021-05-03_21h02.59.428,subsecond_timing_v2,2021.1.2,Win32,59.86948452
space,1.033705,space,1.054435,,,ms_large,0,225,225,225,1,1.2,0.3,False,None,D09,r2,2021-05-03_21h02.59.428,subsecond_timing_v2,2021.1.2,Win32,59.86948452
