key_resp_start.keys,key_resp_start.rt,key_resp_stop.keys,key_resp_stop.rt,feedback_range,hit,stimulus_range,trials.thisRepN,trials.thisTrialN,trials.thisN,trials.thisIndex,trials.ran,stimulus_duration,onset,feedback,feedback_range_fromfile,participant,session,date,expName,psychopyVersion,OS,frameRate
space,0.99533,space,0.878195,0.3,TRUE,Training,0,0,0,0,1,1,0.3,True,0.3,D09,r1,2021-05-08_10h42.39.911,subsecond_timing_v2,2021.1.2,Win32,60.54001695
space,0.98389,space,0.701265,0.3,TRUE,Training,0,1,1,1,1,0.75,0.1,True,0.3,D09,r1,2021-05-08_10h42.39.911,subsecond_timing_v2,2021.1.2,Win32,60.54001695
space,1.013545,space,0.44976,0.3,TRUE,Training,0,2,2,2,1,0.5,0.1,True,0.3,D09,r1,2021-05-08_10h42.39.911,subsecond_timing_v2,2021.1.2,Win32,60.54001695
space,0.91832,space,0.706905,0.3,FALSE,Training,0,3,3,3,1,0.5,0.2,True,0.3,D09,r1,2021-05-08_10h42.39.911,subsecond_timing_v2,2021.1.2,Win32,60.54001695
space,0.817245,space,0.538615,0.3,TRUE,Training,0,4,4,4,1,0.75,0.2,True,0.3,D09,r1,2021-05-08_10h42.39.911,subsecond_timing_v2,2021.1.2,Win32,60.54001695
space,0.910225,space,0.83445,0.3,TRUE,Training,0,5,5,5,1,1,0.3,True,0.3,D09,r1,2021-05-08_10h42.39.911,subsecond_timing_v2,2021.1.2,Win32,60.54001695
space,0.89298,space,0.758885,,,ms_small,0,6,6,6,1,0.706,0.2,False,None,D09,r1,2021-05-08_10h42.39.911,subsecond_timing_v2,2021.1.2,Win32,60.54001695
space,0.82023,space,0.78487,,,ms_small,0,7,7,7,1,0.812,0.3,False,None,D09,r1,2021-05-08_10h42.39.911,subsecond_timing_v2,2021.1.2,Win32,60.54001695
space,0.876015,space,0.804915,,,ms_small,0,8,8,8,1,0.847,0.1,False,None,D09,r1,2021-05-08_10h42.39.911,subsecond_timing_v2,2021.1.2,Win32,60.54001695
space,0.900625,space,0.668715,,,ms_small,0,9,9,9,1,0.67,0.3,False,None,D09,r1,2021-05-08_10h42.39.911,subsecond_timing_v2,2021.1.2,Win32,60.54001695
space,0.891395,space,0.80154,,,ms_small,0,10,10,10,1,0.988,0.1,False,None,D09,r1,2021-05-08_10h42.39.911,subsecond_timing_v2,2021.1.2,Win32,60.54001695
space,0.778375,space,0.788545,,,ms_small,0,11,11,11,1,0.953,0.1,False,None,D09,r1,2021-05-08_10h42.39.911,subsecond_timing_v2,2021.1.2,Win32,60.54001695
space,0.89385,space,0.7773,,,ms_small,0,12,12,12,1,0.882,0.3,False,None,D09,r1,2021-05-08_10h42.39.911,subsecond_timing_v2,2021.1.2,Win32,60.54001695
space,0.834725,space,0.855615,,,ms_small,0,13,13,13,1,0.918,0.1,False,None,D09,r1,2021-05-08_10h42.39.911,subsecond_timing_v2,2021.1.2,Win32,60.54001695
space,0.9225,space,0.80824,,,ms_small,0,14,14,14,1,0.776,0.2,False,None,D09,r1,2021-05-08_10h42.39.911,subsecond_timing_v2,2021.1.2,Win32,60.54001695
space,0.884115,space,0.770615,,,ms_small,0,15,15,15,1,0.741,0.3,False,None,D09,r1,2021-05-08_10h42.39.911,subsecond_timing_v2,2021.1.2,Win32,60.54001695
space,0.829165,space,0.8911,,,ms_small,0,16,16,16,1,1.024,0.3,False,None,D09,r1,2021-05-08_10h42.39.911,subsecond_timing_v2,2021.1.2,Win32,60.54001695
space,0.90406,space,0.775265,,,ms_small,0,17,17,17,1,0.67,0.1,False,None,D09,r1,2021-05-08_10h42.39.911,subsecond_timing_v2,2021.1.2,Win32,60.54001695
space,0.83418,space,0.688535,,,ms_small,0,18,18,18,1,0.812,0.3,False,None,D09,r1,2021-05-08_10h42.39.911,subsecond_timing_v2,2021.1.2,Win32,60.54001695
space,0.85126,space,0.827945,,,ms_small,0,19,19,19,1,0.953,0.3,False,None,D09,r1,2021-05-08_10h42.39.911,subsecond_timing_v2,2021.1.2,Win32,60.54001695
space,0.92405,space,0.75095,,,ms_small,0,20,20,20,1,0.776,0.1,False,None,D09,r1,2021-05-08_10h42.39.911,subsecond_timing_v2,2021.1.2,Win32,60.54001695
space,0.839285,space,0.695565,,,ms_small,0,21,21,21,1,0.741,0.2,False,None,D09,r1,2021-05-08_10h42.39.911,subsecond_timing_v2,2021.1.2,Win32,60.54001695
space,0.851605,space,0.717175,,,ms_small,0,22,22,22,1,0.847,0.2,False,None,D09,r1,2021-05-08_10h42.39.911,subsecond_timing_v2,2021.1.2,Win32,60.54001695
space,0.72505,space,0.770365,,,ms_small,0,23,23,23,1,1.024,0.1,False,None,D09,r1,2021-05-08_10h42.39.911,subsecond_timing_v2,2021.1.2,Win32,60.54001695
space,0.950475,space,0.95289,,,ms_small,0,24,24,24,1,0.882,0.3,False,None,D09,r1,2021-05-08_10h42.39.911,subsecond_timing_v2,2021.1.2,Win32,60.54001695
space,0.900035,space,0.74051,,,ms_small,0,25,25,25,1,0.988,0.1,False,None,D09,r1,2021-05-08_10h42.39.911,subsecond_timing_v2,2021.1.2,Win32,60.54001695
space,0.916855,space,0.617545,,,ms_small,0,26,26,26,1,0.706,0.2,False,None,D09,r1,2021-05-08_10h42.39.911,subsecond_timing_v2,2021.1.2,Win32,60.54001695
space,0.754595,space,0.74059,,,ms_small,0,27,27,27,1,0.918,0.3,False,None,D09,r1,2021-05-08_10h42.39.911,subsecond_timing_v2,2021.1.2,Win32,60.54001695
space,0.75077,space,0.718905,,,ms_small,0,28,28,28,1,0.706,0.1,False,None,D09,r1,2021-05-08_10h42.39.911,subsecond_timing_v2,2021.1.2,Win32,60.54001695
space,0.854235,space,0.773465,,,ms_small,0,29,29,29,1,0.918,0.1,False,None,D09,r1,2021-05-08_10h42.39.911,subsecond_timing_v2,2021.1.2,Win32,60.54001695
space,0.81696,space,0.73397,,,ms_small,0,30,30,30,1,0.67,0.2,False,None,D09,r1,2021-05-08_10h42.39.911,subsecond_timing_v2,2021.1.2,Win32,60.54001695
space,0.767935,space,0.82526,,,ms_small,0,31,31,31,1,0.988,0.1,False,None,D09,r1,2021-05-08_10h42.39.911,subsecond_timing_v2,2021.1.2,Win32,60.54001695
space,0.882605,space,0.88415,,,ms_small,0,32,32,32,1,0.953,0.2,False,None,D09,r1,2021-05-08_10h42.39.911,subsecond_timing_v2,2021.1.2,Win32,60.54001695
space,0.84504,space,0.9109,,,ms_small,0,33,33,33,1,0.776,0.1,False,None,D09,r1,2021-05-08_10h42.39.911,subsecond_timing_v2,2021.1.2,Win32,60.54001695
space,0.953555,space,0.857175,,,ms_small,0,34,34,34,1,0.847,0.1,False,None,D09,r1,2021-05-08_10h42.39.911,subsecond_timing_v2,2021.1.2,Win32,60.54001695
space,0.886715,space,0.87901,,,ms_small,0,35,35,35,1,0.741,0.2,False,None,D09,r1,2021-05-08_10h42.39.911,subsecond_timing_v2,2021.1.2,Win32,60.54001695
space,0.92759,space,0.82864,,,ms_small,0,36,36,36,1,0.812,0.1,False,None,D09,r1,2021-05-08_10h42.39.911,subsecond_timing_v2,2021.1.2,Win32,60.54001695
space,0.934355,space,0.877975,,,ms_small,0,37,37,37,1,0.882,0.1,False,None,D09,r1,2021-05-08_10h42.39.911,subsecond_timing_v2,2021.1.2,Win32,60.54001695
space,0.800695,space,0.87498,,,ms_small,0,38,38,38,1,1.024,0.3,False,None,D09,r1,2021-05-08_10h42.39.911,subsecond_timing_v2,2021.1.2,Win32,60.54001695
space,0.943225,space,0.85572,,,ms_small,0,39,39,39,1,0.847,0.2,False,None,D09,r1,2021-05-08_10h42.39.911,subsecond_timing_v2,2021.1.2,Win32,60.54001695
space,0.876155,space,0.868245,,,ms_small,0,40,40,40,1,0.918,0.2,False,None,D09,r1,2021-05-08_10h42.39.911,subsecond_timing_v2,2021.1.2,Win32,60.54001695
space,0.87287,space,0.900415,,,ms_small,0,41,41,41,1,0.953,0.1,False,None,D09,r1,2021-05-08_10h42.39.911,subsecond_timing_v2,2021.1.2,Win32,60.54001695
space,0.767025,space,0.89131,,,ms_small,0,42,42,42,1,0.882,0.3,False,None,D09,r1,2021-05-08_10h42.39.911,subsecond_timing_v2,2021.1.2,Win32,60.54001695
space,0.812645,space,0.859405,,,ms_small,0,43,43,43,1,0.741,0.2,False,None,D09,r1,2021-05-08_10h42.39.911,subsecond_timing_v2,2021.1.2,Win32,60.54001695
space,0.766155,space,0.805075,,,ms_small,0,44,44,44,1,0.67,0.3,False,None,D09,r1,2021-05-08_10h42.39.911,subsecond_timing_v2,2021.1.2,Win32,60.54001695
space,0.854415,space,0.87303,,,ms_small,0,45,45,45,1,0.812,0.2,False,None,D09,r1,2021-05-08_10h42.39.911,subsecond_timing_v2,2021.1.2,Win32,60.54001695
space,0.835745,space,0.889215,,,ms_small,0,46,46,46,1,1.024,0.3,False,None,D09,r1,2021-05-08_10h42.39.911,subsecond_timing_v2,2021.1.2,Win32,60.54001695
space,0.954745,space,0.810425,,,ms_small,0,47,47,47,1,0.706,0.3,False,None,D09,r1,2021-05-08_10h42.39.911,subsecond_timing_v2,2021.1.2,Win32,60.54001695
space,0.78621,space,0.8423,,,ms_small,0,48,48,48,1,0.988,0.2,False,None,D09,r1,2021-05-08_10h42.39.911,subsecond_timing_v2,2021.1.2,Win32,60.54001695
space,1.00443,space,0.770645,,,ms_small,0,49,49,49,1,0.776,0.1,False,None,D09,r1,2021-05-08_10h42.39.911,subsecond_timing_v2,2021.1.2,Win32,60.54001695
space,0.89427,space,0.82426,,,ms_small,0,50,50,50,1,0.988,0.1,False,None,D09,r1,2021-05-08_10h42.39.911,subsecond_timing_v2,2021.1.2,Win32,60.54001695
space,0.90953,space,0.816925,,,ms_small,0,51,51,51,1,0.706,0.3,False,None,D09,r1,2021-05-08_10h42.39.911,subsecond_timing_v2,2021.1.2,Win32,60.54001695
space,0.8107,space,0.751765,,,ms_small,0,52,52,52,1,0.953,0.2,False,None,D09,r1,2021-05-08_10h42.39.911,subsecond_timing_v2,2021.1.2,Win32,60.54001695
space,0.846315,space,0.8745,,,ms_small,0,53,53,53,1,0.847,0.2,False,None,D09,r1,2021-05-08_10h42.39.911,subsecond_timing_v2,2021.1.2,Win32,60.54001695
space,0.938475,space,0.874665,,,ms_small,0,54,54,54,1,0.918,0.3,False,None,D09,r1,2021-05-08_10h42.39.911,subsecond_timing_v2,2021.1.2,Win32,60.54001695
space,0.376475,space,0.884835,,,ms_small,0,55,55,55,1,0.741,0.1,False,None,D09,r1,2021-05-08_10h42.39.911,subsecond_timing_v2,2021.1.2,Win32,60.54001695
space,1.056845,space,0.806895,,,ms_small,0,56,56,56,1,0.67,0.1,False,None,D09,r1,2021-05-08_10h42.39.911,subsecond_timing_v2,2021.1.2,Win32,60.54001695
space,0.885285,space,0.693125,,,ms_small,0,57,57,57,1,0.776,0.2,False,None,D09,r1,2021-05-08_10h42.39.911,subsecond_timing_v2,2021.1.2,Win32,60.54001695
space,1.0275,space,0.808015,,,ms_small,0,58,58,58,1,0.882,0.1,False,None,D09,r1,2021-05-08_10h42.39.911,subsecond_timing_v2,2021.1.2,Win32,60.54001695
space,0.81664,space,0.8175,,,ms_small,0,59,59,59,1,0.812,0.2,False,None,D09,r1,2021-05-08_10h42.39.911,subsecond_timing_v2,2021.1.2,Win32,60.54001695
space,0.660515,space,0.86794,,,ms_small,0,60,60,60,1,1.024,0.2,False,None,D09,r1,2021-05-08_10h42.39.911,subsecond_timing_v2,2021.1.2,Win32,60.54001695
space,0.768085,space,0.837425,,,ms_small,0,61,61,61,1,0.847,0.3,False,None,D09,r1,2021-05-08_10h42.39.911,subsecond_timing_v2,2021.1.2,Win32,60.54001695
space,0.88465,space,0.767675,,,ms_small,0,62,62,62,1,0.67,0.1,False,None,D09,r1,2021-05-08_10h42.39.911,subsecond_timing_v2,2021.1.2,Win32,60.54001695
space,0.835625,space,0.80519,,,ms_small,0,63,63,63,1,0.988,0.3,False,None,D09,r1,2021-05-08_10h42.39.911,subsecond_timing_v2,2021.1.2,Win32,60.54001695
space,0.98446,space,0.80983,,,ms_small,0,64,64,64,1,0.812,0.1,False,None,D09,r1,2021-05-08_10h42.39.911,subsecond_timing_v2,2021.1.2,Win32,60.54001695
space,0.806535,space,0.83636,,,ms_small,0,65,65,65,1,0.882,0.3,False,None,D09,r1,2021-05-08_10h42.39.911,subsecond_timing_v2,2021.1.2,Win32,60.54001695
space,0.901865,space,0.95716,,,ms_small,0,66,66,66,1,0.918,0.1,False,None,D09,r1,2021-05-08_10h42.39.911,subsecond_timing_v2,2021.1.2,Win32,60.54001695
space,0.86144,space,0.842855,,,ms_small,0,67,67,67,1,1.024,0.1,False,None,D09,r1,2021-05-08_10h42.39.911,subsecond_timing_v2,2021.1.2,Win32,60.54001695
space,1.018985,space,0.784195,,,ms_small,0,68,68,68,1,0.776,0.2,False,None,D09,r1,2021-05-08_10h42.39.911,subsecond_timing_v2,2021.1.2,Win32,60.54001695
space,0.891765,space,0.85743,,,ms_small,0,69,69,69,1,0.953,0.1,False,None,D09,r1,2021-05-08_10h42.39.911,subsecond_timing_v2,2021.1.2,Win32,60.54001695
space,0.884085,space,0.751245,,,ms_small,0,70,70,70,1,0.706,0.1,False,None,D09,r1,2021-05-08_10h42.39.911,subsecond_timing_v2,2021.1.2,Win32,60.54001695
space,0.887315,space,0.887215,,,ms_small,0,71,71,71,1,0.741,0.3,False,None,D09,r1,2021-05-08_10h42.39.911,subsecond_timing_v2,2021.1.2,Win32,60.54001695
space,0.871565,space,0.87638,,,ms_small,0,72,72,72,1,0.882,0.2,False,None,D09,r1,2021-05-08_10h42.39.911,subsecond_timing_v2,2021.1.2,Win32,60.54001695
space,0.83466,space,0.768405,,,ms_small,0,73,73,73,1,0.918,0.3,False,None,D09,r1,2021-05-08_10h42.39.911,subsecond_timing_v2,2021.1.2,Win32,60.54001695
space,0.90306,space,0.857465,,,ms_small,0,74,74,74,1,0.988,0.2,False,None,D09,r1,2021-05-08_10h42.39.911,subsecond_timing_v2,2021.1.2,Win32,60.54001695
space,0.667565,space,0.50932,,,ms_small,0,75,75,75,1,0.67,0.1,False,None,D09,r1,2021-05-08_10h42.39.911,subsecond_timing_v2,2021.1.2,Win32,60.54001695
space,0.707435,space,0.587835,,,ms_small,0,76,76,76,1,0.776,0.3,False,None,D09,r1,2021-05-08_10h42.39.911,subsecond_timing_v2,2021.1.2,Win32,60.54001695
space,0.73631,space,0.639765,,,ms_small,0,77,77,77,1,0.847,0.2,False,None,D09,r1,2021-05-08_10h42.39.911,subsecond_timing_v2,2021.1.2,Win32,60.54001695
space,0.75139,space,0.751655,,,ms_small,0,78,78,78,1,1.024,0.2,False,None,D09,r1,2021-05-08_10h42.39.911,subsecond_timing_v2,2021.1.2,Win32,60.54001695
space,0.92646,space,0.716755,,,ms_small,0,79,79,79,1,0.812,0.3,False,None,D09,r1,2021-05-08_10h42.39.911,subsecond_timing_v2,2021.1.2,Win32,60.54001695
space,0.843775,space,0.746575,,,ms_small,0,80,80,80,1,0.953,0.1,False,None,D09,r1,2021-05-08_10h42.39.911,subsecond_timing_v2,2021.1.2,Win32,60.54001695
space,0.83656,space,1.28599,,,ms_small,0,81,81,81,1,0.706,0.2,False,None,D09,r1,2021-05-08_10h42.39.911,subsecond_timing_v2,2021.1.2,Win32,60.54001695
space,0.770745,space,0.667585,,,ms_small,0,82,82,82,1,0.741,0.3,False,None,D09,r1,2021-05-08_10h42.39.911,subsecond_timing_v2,2021.1.2,Win32,60.54001695
space,0.759425,space,0.617695,,,ms_small,0,83,83,83,1,0.706,0.1,False,None,D09,r1,2021-05-08_10h42.39.911,subsecond_timing_v2,2021.1.2,Win32,60.54001695
space,0.71816,space,0.651275,,,ms_small,0,84,84,84,1,0.812,0.2,False,None,D09,r1,2021-05-08_10h42.39.911,subsecond_timing_v2,2021.1.2,Win32,60.54001695
space,0.786125,space,0.71231,,,ms_small,0,85,85,85,1,0.882,0.2,False,None,D09,r1,2021-05-08_10h42.39.911,subsecond_timing_v2,2021.1.2,Win32,60.54001695
space,0.84142,space,0.707435,,,ms_small,0,86,86,86,1,0.776,0.1,False,None,D09,r1,2021-05-08_10h42.39.911,subsecond_timing_v2,2021.1.2,Win32,60.54001695
space,0.695115,space,0.659335,,,ms_small,0,87,87,87,1,0.988,0.3,False,None,D09,r1,2021-05-08_10h42.39.911,subsecond_timing_v2,2021.1.2,Win32,60.54001695
space,0.66683,space,0.550485,,,ms_small,0,88,88,88,1,0.67,0.2,False,None,D09,r1,2021-05-08_10h42.39.911,subsecond_timing_v2,2021.1.2,Win32,60.54001695
space,0.75572,space,0.61215,,,ms_small,0,89,89,89,1,0.741,0.3,False,None,D09,r1,2021-05-08_10h42.39.911,subsecond_timing_v2,2021.1.2,Win32,60.54001695
space,0.81697,space,0.67275,,,ms_small,0,90,90,90,1,0.918,0.1,False,None,D09,r1,2021-05-08_10h42.39.911,subsecond_timing_v2,2021.1.2,Win32,60.54001695
space,0.717645,space,0.58521,,,ms_small,0,91,91,91,1,0.847,0.3,False,None,D09,r1,2021-05-08_10h42.39.911,subsecond_timing_v2,2021.1.2,Win32,60.54001695
space,0.7427,space,0.6338,,,ms_small,0,92,92,92,1,0.953,0.2,False,None,D09,r1,2021-05-08_10h42.39.911,subsecond_timing_v2,2021.1.2,Win32,60.54001695
space,0.8127,space,0.718305,,,ms_small,0,93,93,93,1,1.024,0.2,False,None,D09,r1,2021-05-08_10h42.39.911,subsecond_timing_v2,2021.1.2,Win32,60.54001695
space,0.68378,space,0.81664,,,ms_small,0,94,94,94,1,0.882,0.1,False,None,D09,r1,2021-05-08_10h42.39.911,subsecond_timing_v2,2021.1.2,Win32,60.54001695
space,0.601465,space,0.671895,,,ms_small,0,95,95,95,1,0.67,0.2,False,None,D09,r1,2021-05-08_10h42.39.911,subsecond_timing_v2,2021.1.2,Win32,60.54001695
space,0.707985,space,0.80119,,,ms_small,0,96,96,96,1,0.918,0.3,False,None,D09,r1,2021-05-08_10h42.39.911,subsecond_timing_v2,2021.1.2,Win32,60.54001695
space,0.803155,space,0.734565,,,ms_small,0,97,97,97,1,0.706,0.2,False,None,D09,r1,2021-05-08_10h42.39.911,subsecond_timing_v2,2021.1.2,Win32,60.54001695
space,0.74354,space,0.734085,,,ms_small,0,98,98,98,1,0.988,0.1,False,None,D09,r1,2021-05-08_10h42.39.911,subsecond_timing_v2,2021.1.2,Win32,60.54001695
space,0.807715,space,0.74218,,,ms_small,0,99,99,99,1,0.741,0.3,False,None,D09,r1,2021-05-08_10h42.39.911,subsecond_timing_v2,2021.1.2,Win32,60.54001695
space,0.718655,space,1.01883,,,ms_small,0,100,100,100,1,1.024,0.2,False,None,D09,r1,2021-05-08_10h42.39.911,subsecond_timing_v2,2021.1.2,Win32,60.54001695
space,0.75444,space,0.778485,,,ms_small,0,101,101,101,1,0.776,0.2,False,None,D09,r1,2021-05-08_10h42.39.911,subsecond_timing_v2,2021.1.2,Win32,60.54001695
space,0.760125,space,0.735725,,,ms_small,0,102,102,102,1,0.812,0.2,False,None,D09,r1,2021-05-08_10h42.39.911,subsecond_timing_v2,2021.1.2,Win32,60.54001695
space,0.71187,space,0.66867,,,ms_small,0,103,103,103,1,0.953,0.2,False,None,D09,r1,2021-05-08_10h42.39.911,subsecond_timing_v2,2021.1.2,Win32,60.54001695
space,0.902065,space,0.700765,,,ms_small,0,104,104,104,1,0.847,0.1,False,None,D09,r1,2021-05-08_10h42.39.911,subsecond_timing_v2,2021.1.2,Win32,60.54001695
space,0.70298,space,0.595495,,,ms_small,0,105,105,105,1,0.706,0.2,False,None,D09,r1,2021-05-08_10h42.39.911,subsecond_timing_v2,2021.1.2,Win32,60.54001695
space,0.90368,space,0.69136,,,ms_small,0,106,106,106,1,0.741,0.1,False,None,D09,r1,2021-05-08_10h42.39.911,subsecond_timing_v2,2021.1.2,Win32,60.54001695
space,0.850785,space,0.6914,,,ms_small,0,107,107,107,1,0.67,0.1,False,None,D09,r1,2021-05-08_10h42.39.911,subsecond_timing_v2,2021.1.2,Win32,60.54001695
space,0.584895,space,0.62694,,,ms_small,0,108,108,108,1,0.847,0.1,False,None,D09,r1,2021-05-08_10h42.39.911,subsecond_timing_v2,2021.1.2,Win32,60.54001695
space,0.862135,space,0.70667,,,ms_small,0,109,109,109,1,0.812,0.2,False,None,D09,r1,2021-05-08_10h42.39.911,subsecond_timing_v2,2021.1.2,Win32,60.54001695
space,0.768865,space,0.6415,,,ms_small,0,110,110,110,1,0.776,0.3,False,None,D09,r1,2021-05-08_10h42.39.911,subsecond_timing_v2,2021.1.2,Win32,60.54001695
space,0.951265,space,0.71263,,,ms_small,0,111,111,111,1,0.988,0.3,False,None,D09,r1,2021-05-08_10h42.39.911,subsecond_timing_v2,2021.1.2,Win32,60.54001695
space,0.820015,space,0.907945,,,ms_small,0,112,112,112,1,0.918,0.1,False,None,D09,r1,2021-05-08_10h42.39.911,subsecond_timing_v2,2021.1.2,Win32,60.54001695
space,0.788075,space,0.66727,,,ms_small,0,113,113,113,1,0.882,0.1,False,None,D09,r1,2021-05-08_10h42.39.911,subsecond_timing_v2,2021.1.2,Win32,60.54001695
space,0.82324,space,1.017325,,,ms_small,0,114,114,114,1,1.024,0.2,False,None,D09,r1,2021-05-08_10h42.39.911,subsecond_timing_v2,2021.1.2,Win32,60.54001695
space,0.734375,space,0.839845,,,ms_small,0,115,115,115,1,0.953,0.2,False,None,D09,r1,2021-05-08_10h42.39.911,subsecond_timing_v2,2021.1.2,Win32,60.54001695
space,0.940095,space,0.82259,,,ms_small,0,116,116,116,1,0.847,0.3,False,None,D09,r1,2021-05-08_10h42.39.911,subsecond_timing_v2,2021.1.2,Win32,60.54001695
space,0.908405,space,0.750905,,,ms_small,0,117,117,117,1,0.882,0.2,False,None,D09,r1,2021-05-08_10h42.39.911,subsecond_timing_v2,2021.1.2,Win32,60.54001695
space,1.428325,space,0.76766,,,ms_small,0,118,118,118,1,1.024,0.1,False,None,D09,r1,2021-05-08_10h42.39.911,subsecond_timing_v2,2021.1.2,Win32,60.54001695
space,0.859905,space,0.72207,,,ms_small,0,119,119,119,1,0.706,0.2,False,None,D09,r1,2021-05-08_10h42.39.911,subsecond_timing_v2,2021.1.2,Win32,60.54001695
space,0.717455,space,0.71776,,,ms_small,0,120,120,120,1,0.918,0.1,False,None,D09,r1,2021-05-08_10h42.39.911,subsecond_timing_v2,2021.1.2,Win32,60.54001695
space,0.7763,space,0.684475,,,ms_small,0,121,121,121,1,0.776,0.1,False,None,D09,r1,2021-05-08_10h42.39.911,subsecond_timing_v2,2021.1.2,Win32,60.54001695
space,0.72837,space,0.728705,,,ms_small,0,122,122,122,1,0.953,0.3,False,None,D09,r1,2021-05-08_10h42.39.911,subsecond_timing_v2,2021.1.2,Win32,60.54001695
space,1.019485,space,0.620785,,,ms_small,0,123,123,123,1,0.67,0.1,False,None,D09,r1,2021-05-08_10h42.39.911,subsecond_timing_v2,2021.1.2,Win32,60.54001695
space,0.808595,space,0.635645,,,ms_small,0,124,124,124,1,0.812,0.2,False,None,D09,r1,2021-05-08_10h42.39.911,subsecond_timing_v2,2021.1.2,Win32,60.54001695
space,0.7449,space,0.972885,,,ms_small,0,125,125,125,1,0.988,0.2,False,None,D09,r1,2021-05-08_10h42.39.911,subsecond_timing_v2,2021.1.2,Win32,60.54001695
space,0.800795,space,0.657265,,,ms_small,0,126,126,126,1,0.741,0.3,False,None,D09,r1,2021-05-08_10h42.39.911,subsecond_timing_v2,2021.1.2,Win32,60.54001695
space,0.72931,space,0.490365,,,ms_small,0,127,127,127,1,0.67,0.1,False,None,D09,r1,2021-05-08_10h42.39.911,subsecond_timing_v2,2021.1.2,Win32,60.54001695
space,0.823685,space,0.60772,,,ms_small,0,128,128,128,1,0.776,0.3,False,None,D09,r1,2021-05-08_10h42.39.911,subsecond_timing_v2,2021.1.2,Win32,60.54001695
space,0.91726,space,0.688305,,,ms_small,0,129,129,129,1,0.847,0.1,False,None,D09,r1,2021-05-08_10h42.39.911,subsecond_timing_v2,2021.1.2,Win32,60.54001695
space,0.857075,space,0.69036,,,ms_small,0,130,130,130,1,0.812,0.1,False,None,D09,r1,2021-05-08_10h42.39.911,subsecond_timing_v2,2021.1.2,Win32,60.54001695
space,0.81824,space,0.67855,,,ms_small,0,131,131,131,1,0.882,0.1,False,None,D09,r1,2021-05-08_10h42.39.911,subsecond_timing_v2,2021.1.2,Win32,60.54001695
space,0.660305,space,0.58648,,,ms_small,0,132,132,132,1,1.024,0.2,False,None,D09,r1,2021-05-08_10h42.39.911,subsecond_timing_v2,2021.1.2,Win32,60.54001695
space,0.718825,space,0.661695,,,ms_small,0,133,133,133,1,0.953,0.3,False,None,D09,r1,2021-05-08_10h42.39.911,subsecond_timing_v2,2021.1.2,Win32,60.54001695
space,0.733795,space,0.63486,,,ms_small,0,134,134,134,1,0.988,0.2,False,None,D09,r1,2021-05-08_10h42.39.911,subsecond_timing_v2,2021.1.2,Win32,60.54001695
space,0.834595,space,0.65263,,,ms_small,0,135,135,135,1,0.706,0.1,False,None,D09,r1,2021-05-08_10h42.39.911,subsecond_timing_v2,2021.1.2,Win32,60.54001695
space,0.69542,space,0.694925,,,ms_small,0,136,136,136,1,0.918,0.1,False,None,D09,r1,2021-05-08_10h42.39.911,subsecond_timing_v2,2021.1.2,Win32,60.54001695
space,0.888335,space,0.625465,,,ms_small,0,137,137,137,1,0.741,0.1,False,None,D09,r1,2021-05-08_10h42.39.911,subsecond_timing_v2,2021.1.2,Win32,60.54001695
space,0.917915,space,0.66137,,,ms_small,0,138,138,138,1,0.741,0.3,False,None,D09,r1,2021-05-08_10h42.39.911,subsecond_timing_v2,2021.1.2,Win32,60.54001695
space,0.721645,space,0.628215,,,ms_small,0,139,139,139,1,0.988,0.2,False,None,D09,r1,2021-05-08_10h42.39.911,subsecond_timing_v2,2021.1.2,Win32,60.54001695
space,1.006465,space,0.492525,,,ms_small,0,140,140,140,1,0.812,0.3,False,None,D09,r1,2021-05-08_10h42.39.911,subsecond_timing_v2,2021.1.2,Win32,60.54001695
space,0.82079,space,0.59129,,,ms_small,0,141,141,141,1,0.918,0.2,False,None,D09,r1,2021-05-08_10h42.39.911,subsecond_timing_v2,2021.1.2,Win32,60.54001695
space,0.783835,space,0.63732,,,ms_small,0,142,142,142,1,0.847,0.2,False,None,D09,r1,2021-05-08_10h42.39.911,subsecond_timing_v2,2021.1.2,Win32,60.54001695
space,0.75403,space,0.61675,,,ms_small,0,143,143,143,1,0.953,0.1,False,None,D09,r1,2021-05-08_10h42.39.911,subsecond_timing_v2,2021.1.2,Win32,60.54001695
space,0.726805,space,0.644595,,,ms_small,0,144,144,144,1,0.776,0.3,False,None,D09,r1,2021-05-08_10h42.39.911,subsecond_timing_v2,2021.1.2,Win32,60.54001695
space,0.54622,space,0.54416,,,ms_small,0,145,145,145,1,0.706,0.3,False,None,D09,r1,2021-05-08_10h42.39.911,subsecond_timing_v2,2021.1.2,Win32,60.54001695
space,0.617535,space,1.000425,,,ms_small,0,146,146,146,1,1.024,0.1,False,None,D09,r1,2021-05-08_10h42.39.911,subsecond_timing_v2,2021.1.2,Win32,60.54001695
space,0.741235,space,0.60866,,,ms_small,0,147,147,147,1,0.882,0.2,False,None,D09,r1,2021-05-08_10h42.39.911,subsecond_timing_v2,2021.1.2,Win32,60.54001695
space,0.78479,space,0.584685,,,ms_small,0,148,148,148,1,0.67,0.3,False,None,D09,r1,2021-05-08_10h42.39.911,subsecond_timing_v2,2021.1.2,Win32,60.54001695
space,0.91355,space,0.635215,,,ms_small,0,149,149,149,1,0.67,0.3,False,None,D09,r1,2021-05-08_10h42.39.911,subsecond_timing_v2,2021.1.2,Win32,60.54001695
space,0.80395,space,0.64544,,,ms_small,0,150,150,150,1,0.741,0.3,False,None,D09,r1,2021-05-08_10h42.39.911,subsecond_timing_v2,2021.1.2,Win32,60.54001695
space,0.7913,space,0.595965,,,ms_small,0,151,151,151,1,0.918,0.1,False,None,D09,r1,2021-05-08_10h42.39.911,subsecond_timing_v2,2021.1.2,Win32,60.54001695
space,0.761415,space,0.64412,,,ms_small,0,152,152,152,1,0.706,0.3,False,None,D09,r1,2021-05-08_10h42.39.911,subsecond_timing_v2,2021.1.2,Win32,60.54001695
space,0.743115,space,0.56836,,,ms_small,0,153,153,153,1,0.988,0.2,False,None,D09,r1,2021-05-08_10h42.39.911,subsecond_timing_v2,2021.1.2,Win32,60.54001695
space,0.63416,space,0.544725,,,ms_small,0,154,154,154,1,0.847,0.2,False,None,D09,r1,2021-05-08_10h42.39.911,subsecond_timing_v2,2021.1.2,Win32,60.54001695
space,0.574645,space,0.542165,,,ms_small,0,155,155,155,1,0.776,0.3,False,None,D09,r1,2021-05-08_10h42.39.911,subsecond_timing_v2,2021.1.2,Win32,60.54001695
space,0.67426,space,0.574625,,,ms_small,0,156,156,156,1,0.882,0.2,False,None,D09,r1,2021-05-08_10h42.39.911,subsecond_timing_v2,2021.1.2,Win32,60.54001695
space,0.901745,space,0.65948,,,ms_small,0,157,157,157,1,0.812,0.1,False,None,D09,r1,2021-05-08_10h42.39.911,subsecond_timing_v2,2021.1.2,Win32,60.54001695
space,0.717125,space,0.600495,,,ms_small,0,158,158,158,1,1.024,0.1,False,None,D09,r1,2021-05-08_10h42.39.911,subsecond_timing_v2,2021.1.2,Win32,60.54001695
space,0.749885,space,0.65094,,,ms_small,0,159,159,159,1,0.953,0.2,False,None,D09,r1,2021-05-08_10h42.39.911,subsecond_timing_v2,2021.1.2,Win32,60.54001695
space,0.80335,space,0.650685,,,ms_small,0,160,160,160,1,0.812,0.2,False,None,D09,r1,2021-05-08_10h42.39.911,subsecond_timing_v2,2021.1.2,Win32,60.54001695
space,0.919555,space,0.56721,,,ms_small,0,161,161,161,1,0.67,0.1,False,None,D09,r1,2021-05-08_10h42.39.911,subsecond_timing_v2,2021.1.2,Win32,60.54001695
space,0.71798,space,0.617385,,,ms_small,0,162,162,162,1,0.953,0.1,False,None,D09,r1,2021-05-08_10h42.39.911,subsecond_timing_v2,2021.1.2,Win32,60.54001695
space,0.636915,space,0.653185,,,ms_small,0,163,163,163,1,0.882,0.3,False,None,D09,r1,2021-05-08_10h42.39.911,subsecond_timing_v2,2021.1.2,Win32,60.54001695
space,0.718515,space,0.58449,,,ms_small,0,164,164,164,1,0.988,0.1,False,None,D09,r1,2021-05-08_10h42.39.911,subsecond_timing_v2,2021.1.2,Win32,60.54001695
space,0.70864,space,0.63986,,,ms_small,0,165,165,165,1,0.706,0.1,False,None,D09,r1,2021-05-08_10h42.39.911,subsecond_timing_v2,2021.1.2,Win32,60.54001695
space,0.818655,space,0.667355,,,ms_small,0,166,166,166,1,1.024,0.3,False,None,D09,r1,2021-05-08_10h42.39.911,subsecond_timing_v2,2021.1.2,Win32,60.54001695
space,0.76697,space,0.6117,,,ms_small,0,167,167,167,1,0.847,0.3,False,None,D09,r1,2021-05-08_10h42.39.911,subsecond_timing_v2,2021.1.2,Win32,60.54001695
space,0.617235,space,0.703225,,,ms_small,0,168,168,168,1,0.741,0.3,False,None,D09,r1,2021-05-08_10h42.39.911,subsecond_timing_v2,2021.1.2,Win32,60.54001695
space,0.87345,space,0.595065,,,ms_small,0,169,169,169,1,0.918,0.2,False,None,D09,r1,2021-05-08_10h42.39.911,subsecond_timing_v2,2021.1.2,Win32,60.54001695
space,0.634005,space,0.55358,,,ms_small,0,170,170,170,1,0.776,0.1,False,None,D09,r1,2021-05-08_10h42.39.911,subsecond_timing_v2,2021.1.2,Win32,60.54001695
space,0.800485,space,0.702935,,,ms_small,0,171,171,171,1,0.882,0.3,False,None,D09,r1,2021-05-08_10h42.39.911,subsecond_timing_v2,2021.1.2,Win32,60.54001695
space,0.80122,space,0.691855,,,ms_small,0,172,172,172,1,0.741,0.1,False,None,D09,r1,2021-05-08_10h42.39.911,subsecond_timing_v2,2021.1.2,Win32,60.54001695
space,0.74975,space,0.626935,,,ms_small,0,173,173,173,1,0.988,0.1,False,None,D09,r1,2021-05-08_10h42.39.911,subsecond_timing_v2,2021.1.2,Win32,60.54001695
space,0.752465,space,0.68974,,,ms_small,0,174,174,174,1,0.706,0.2,False,None,D09,r1,2021-05-08_10h42.39.911,subsecond_timing_v2,2021.1.2,Win32,60.54001695
space,0.942575,space,0.713495,,,ms_small,0,175,175,175,1,0.918,0.2,False,None,D09,r1,2021-05-08_10h42.39.911,subsecond_timing_v2,2021.1.2,Win32,60.54001695
space,0.69455,space,0.63746,,,ms_small,0,176,176,176,1,0.953,0.2,False,None,D09,r1,2021-05-08_10h42.39.911,subsecond_timing_v2,2021.1.2,Win32,60.54001695
space,0.91797,space,0.667525,,,ms_small,0,177,177,177,1,0.67,0.2,False,None,D09,r1,2021-05-08_10h42.39.911,subsecond_timing_v2,2021.1.2,Win32,60.54001695
space,0.652885,space,0.639145,,,ms_small,0,178,178,178,1,0.847,0.3,False,None,D09,r1,2021-05-08_10h42.39.911,subsecond_timing_v2,2021.1.2,Win32,60.54001695
space,0.76733,space,0.66846,,,ms_small,0,179,179,179,1,0.776,0.1,False,None,D09,r1,2021-05-08_10h42.39.911,subsecond_timing_v2,2021.1.2,Win32,60.54001695
space,0.734725,space,0.60675,,,ms_small,0,180,180,180,1,0.812,0.1,False,None,D09,r1,2021-05-08_10h42.39.911,subsecond_timing_v2,2021.1.2,Win32,60.54001695
space,0.718355,space,0.82634,,,ms_small,0,181,181,181,1,1.024,0.2,False,None,D09,r1,2021-05-08_10h42.39.911,subsecond_timing_v2,2021.1.2,Win32,60.54001695
space,0.944045,space,0.784105,,,ms_small,0,182,182,182,1,0.706,0.3,False,None,D09,r1,2021-05-08_10h42.39.911,subsecond_timing_v2,2021.1.2,Win32,60.54001695
space,0.827255,space,0.717755,,,ms_small,0,183,183,183,1,0.988,0.1,False,None,D09,r1,2021-05-08_10h42.39.911,subsecond_timing_v2,2021.1.2,Win32,60.54001695
space,0.90422,space,0.68851,,,ms_small,0,185,185,185,1,0.847,0.1,False,None,D09,r1,2021-05-08_10h42.39.911,subsecond_timing_v2,2021.1.2,Win32,60.54001695
space,0.943395,space,0.90056,,,ms_small,0,186,186,186,1,0.741,0.1,False,None,D09,r1,2021-05-08_10h42.39.911,subsecond_timing_v2,2021.1.2,Win32,60.54001695
space,0.835595,space,0.90039,,,ms_small,0,187,187,187,1,0.776,0.3,False,None,D09,r1,2021-05-08_10h42.39.911,subsecond_timing_v2,2021.1.2,Win32,60.54001695
space,0.84341,space,0.9094,,,ms_small,0,188,188,188,1,0.812,0.3,False,None,D09,r1,2021-05-08_10h42.39.911,subsecond_timing_v2,2021.1.2,Win32,60.54001695
space,0.95021,space,0.746485,,,ms_small,0,189,189,189,1,0.918,0.3,False,None,D09,r1,2021-05-08_10h42.39.911,subsecond_timing_v2,2021.1.2,Win32,60.54001695
space,0.95847,space,0.41843,,,ms_small,0,190,190,190,1,0.67,0.1,False,None,D09,r1,2021-05-08_10h42.39.911,subsecond_timing_v2,2021.1.2,Win32,60.54001695
space,0.7336,space,0.867495,,,ms_small,0,191,191,191,1,0.882,0.2,False,None,D09,r1,2021-05-08_10h42.39.911,subsecond_timing_v2,2021.1.2,Win32,60.54001695
space,0.8192,space,0.7551,,,ms_small,0,192,192,192,1,0.953,0.1,False,None,D09,r1,2021-05-08_10h42.39.911,subsecond_timing_v2,2021.1.2,Win32,60.54001695
space,0.96296,space,0.70041,,,ms_small,0,193,193,193,1,0.776,0.1,False,None,D09,r1,2021-05-08_10h42.39.911,subsecond_timing_v2,2021.1.2,Win32,60.54001695
space,0.691665,space,0.82543,,,ms_small,0,194,194,194,1,0.988,0.3,False,None,D09,r1,2021-05-08_10h42.39.911,subsecond_timing_v2,2021.1.2,Win32,60.54001695
space,1.00679,space,0.80829,,,ms_small,0,195,195,195,1,0.953,0.1,False,None,D09,r1,2021-05-08_10h42.39.911,subsecond_timing_v2,2021.1.2,Win32,60.54001695
space,0.867375,space,0.82003,,,ms_small,0,196,196,196,1,0.741,0.3,False,None,D09,r1,2021-05-08_10h42.39.911,subsecond_timing_v2,2021.1.2,Win32,60.54001695
space,0.922545,space,0.550095,,,ms_small,0,197,197,197,1,0.67,0.3,False,None,D09,r1,2021-05-08_10h42.39.911,subsecond_timing_v2,2021.1.2,Win32,60.54001695
space,0.760385,space,0.68402,,,ms_small,0,198,198,198,1,0.847,0.3,False,None,D09,r1,2021-05-08_10h42.39.911,subsecond_timing_v2,2021.1.2,Win32,60.54001695
space,0.822195,space,0.76681,,,ms_small,0,199,199,199,1,0.882,0.2,False,None,D09,r1,2021-05-08_10h42.39.911,subsecond_timing_v2,2021.1.2,Win32,60.54001695
space,0.988415,space,0.72789,,,ms_small,0,200,200,200,1,0.706,0.3,False,None,D09,r1,2021-05-08_10h42.39.911,subsecond_timing_v2,2021.1.2,Win32,60.54001695
space,0.74024,space,0.635575,,,ms_small,0,201,201,201,1,0.812,0.1,False,None,D09,r1,2021-05-08_10h42.39.911,subsecond_timing_v2,2021.1.2,Win32,60.54001695
space,0.627575,space,0.694015,,,ms_small,0,202,202,202,1,1.024,0.2,False,None,D09,r1,2021-05-08_10h42.39.911,subsecond_timing_v2,2021.1.2,Win32,60.54001695
space,0.834445,space,0.70182,,,ms_small,0,203,203,203,1,0.918,0.1,False,None,D09,r1,2021-05-08_10h42.39.911,subsecond_timing_v2,2021.1.2,Win32,60.54001695
space,0.72499,space,0.68693,,,ms_small,0,204,204,204,1,0.776,0.2,False,None,D09,r1,2021-05-08_10h42.39.911,subsecond_timing_v2,2021.1.2,Win32,60.54001695
space,0.95777,space,0.63729,,,ms_small,0,205,205,205,1,0.67,0.1,False,None,D09,r1,2021-05-08_10h42.39.911,subsecond_timing_v2,2021.1.2,Win32,60.54001695
space,0.78428,space,0.726815,,,ms_small,0,206,206,206,1,0.706,0.3,False,None,D09,r1,2021-05-08_10h42.39.911,subsecond_timing_v2,2021.1.2,Win32,60.54001695
space,0.775585,space,0.85862,,,ms_small,0,207,207,207,1,0.988,0.2,False,None,D09,r1,2021-05-08_10h42.39.911,subsecond_timing_v2,2021.1.2,Win32,60.54001695
space,0.77928,space,0.711915,,,ms_small,0,208,208,208,1,0.847,0.3,False,None,D09,r1,2021-05-08_10h42.39.911,subsecond_timing_v2,2021.1.2,Win32,60.54001695
space,0.72417,space,0.753265,,,ms_small,0,209,209,209,1,0.953,0.2,False,None,D09,r1,2021-05-08_10h42.39.911,subsecond_timing_v2,2021.1.2,Win32,60.54001695
space,0.839315,space,0.72824,,,ms_small,0,210,210,210,1,0.812,0.1,False,None,D09,r1,2021-05-08_10h42.39.911,subsecond_timing_v2,2021.1.2,Win32,60.54001695
space,0.75191,space,0.68784,,,ms_small,0,211,211,211,1,0.918,0.1,False,None,D09,r1,2021-05-08_10h42.39.911,subsecond_timing_v2,2021.1.2,Win32,60.54001695
space,0.884105,space,0.679585,,,ms_small,0,212,212,212,1,0.741,0.3,False,None,D09,r1,2021-05-08_10h42.39.911,subsecond_timing_v2,2021.1.2,Win32,60.54001695
space,0.73435,space,0.678005,,,ms_small,0,213,213,213,1,0.882,0.3,False,None,D09,r1,2021-05-08_10h42.39.911,subsecond_timing_v2,2021.1.2,Win32,60.54001695
space,0.81215,space,0.754415,,,ms_small,0,214,214,214,1,1.024,0.1,False,None,D09,r1,2021-05-08_10h42.39.911,subsecond_timing_v2,2021.1.2,Win32,60.54001695
space,0.738975,space,0.62509,,,ms_small,0,215,215,215,1,1.024,0.2,False,None,D09,r1,2021-05-08_10h42.39.911,subsecond_timing_v2,2021.1.2,Win32,60.54001695
space,0.688,space,0.63693,,,ms_small,0,216,216,216,1,0.706,0.2,False,None,D09,r1,2021-05-08_10h42.39.911,subsecond_timing_v2,2021.1.2,Win32,60.54001695
space,0.87952,space,0.67564,,,ms_small,0,217,217,217,1,0.882,0.1,False,None,D09,r1,2021-05-08_10h42.39.911,subsecond_timing_v2,2021.1.2,Win32,60.54001695
space,0.7702,space,0.63514,,,ms_small,0,218,218,218,1,0.776,0.2,False,None,D09,r1,2021-05-08_10h42.39.911,subsecond_timing_v2,2021.1.2,Win32,60.54001695
space,0.775595,space,0.64012,,,ms_small,0,219,219,219,1,0.847,0.2,False,None,D09,r1,2021-05-08_10h42.39.911,subsecond_timing_v2,2021.1.2,Win32,60.54001695
space,0.800655,space,0.784465,,,ms_small,0,220,220,220,1,0.812,0.1,False,None,D09,r1,2021-05-08_10h42.39.911,subsecond_timing_v2,2021.1.2,Win32,60.54001695
space,0.807315,space,0.75609,,,ms_small,0,221,221,221,1,0.988,0.1,False,None,D09,r1,2021-05-08_10h42.39.911,subsecond_timing_v2,2021.1.2,Win32,60.54001695
space,0.87053,space,0.69338,,,ms_small,0,222,222,222,1,0.918,0.1,False,None,D09,r1,2021-05-08_10h42.39.911,subsecond_timing_v2,2021.1.2,Win32,60.54001695
space,0.68705,space,0.7056,,,ms_small,0,223,223,223,1,0.67,0.2,False,None,D09,r1,2021-05-08_10h42.39.911,subsecond_timing_v2,2021.1.2,Win32,60.54001695
space,0.59127,space,0.6171,,,ms_small,0,224,224,224,1,0.741,0.3,False,None,D09,r1,2021-05-08_10h42.39.911,subsecond_timing_v2,2021.1.2,Win32,60.54001695
space,0.78794,space,0.67743,,,ms_small,0,225,225,225,1,0.953,0.1,False,None,D09,r1,2021-05-08_10h42.39.911,subsecond_timing_v2,2021.1.2,Win32,60.54001695
