key_resp_start.keys,key_resp_start.rt,key_resp_stop.keys,key_resp_stop.rt,feedback_range,hit,stimulus_range,trials.thisRepN,trials.thisTrialN,trials.thisN,trials.thisIndex,trials.ran,stimulus_duration,onset,feedback,feedback_range_fromfile,participant,session,date,expName,psychopyVersion,OS,frameRate
space,1.049,space,0.644,0.3,FALSE,Training,0,0,0,0,1,1,0.2,True,0.3,T03,r2,2021-04-24_11h48.01.269,subsecond_timing_v2,2021.1.2,MacIntel,62.5
space,0.493,space,0.56,0.3,TRUE,Training,0,1,1,1,1,0.75,0.2,True,0.3,T03,r2,2021-04-24_11h48.01.269,subsecond_timing_v2,2021.1.2,MacIntel,62.5
space,0.534,space,0.283,0.3,FALSE,Training,0,2,2,2,1,0.5,0.2,True,0.3,T03,r2,2021-04-24_11h48.01.269,subsecond_timing_v2,2021.1.2,MacIntel,62.5
space,0.633,space,0.467,0.3,TRUE,Training,0,3,3,3,1,0.5,0.3,True,0.3,T03,r2,2021-04-24_11h48.01.269,subsecond_timing_v2,2021.1.2,MacIntel,62.5
space,0.734,space,0.566,0.3,TRUE,Training,0,4,4,4,1,0.75,0.3,True,0.3,T03,r2,2021-04-24_11h48.01.269,subsecond_timing_v2,2021.1.2,MacIntel,62.5
space,0.823,space,0.818,0.3,TRUE,Training,0,5,5,5,1,1,0.3,True,0.3,T03,r2,2021-04-24_11h48.01.269,subsecond_timing_v2,2021.1.2,MacIntel,62.5
space,0.984,space,0.816,,,ms_large,0,6,6,6,1,1.165,0.2,False,None,T03,r2,2021-04-24_11h48.01.269,subsecond_timing_v2,2021.1.2,MacIntel,62.5
space,0.95,space,0.691,,,ms_large,0,7,7,7,1,1.094,0.3,False,None,T03,r2,2021-04-24_11h48.01.269,subsecond_timing_v2,2021.1.2,MacIntel,62.5
space,0.784,space,0.733,,,ms_large,0,8,8,8,1,1.2,0.3,False,None,T03,r2,2021-04-24_11h48.01.269,subsecond_timing_v2,2021.1.2,MacIntel,62.5
space,0.836,space,0.585,,,ms_large,0,9,9,9,1,1.024,0.1,False,None,T03,r2,2021-04-24_11h48.01.269,subsecond_timing_v2,2021.1.2,MacIntel,62.5
space,0.841,space,0.757,,,ms_large,0,10,10,10,1,0.953,0.3,False,None,T03,r2,2021-04-24_11h48.01.269,subsecond_timing_v2,2021.1.2,MacIntel,62.5
space,0.785,space,0.707,,,ms_large,0,11,11,11,1,0.847,0.1,False,None,T03,r2,2021-04-24_11h48.01.269,subsecond_timing_v2,2021.1.2,MacIntel,62.5
space,0.675,space,0.769,,,ms_large,0,12,12,12,1,0.882,0.3,False,None,T03,r2,2021-04-24_11h48.01.269,subsecond_timing_v2,2021.1.2,MacIntel,62.5
space,0.817,space,0.808,,,ms_large,0,13,13,13,1,1.129,0.1,False,None,T03,r2,2021-04-24_11h48.01.269,subsecond_timing_v2,2021.1.2,MacIntel,62.5
space,0.651,space,0.666,,,ms_large,0,14,14,14,1,1.059,0.3,False,None,T03,r2,2021-04-24_11h48.01.269,subsecond_timing_v2,2021.1.2,MacIntel,62.5
space,0.857,space,0.75,,,ms_large,0,15,15,15,1,0.918,0.3,False,None,T03,r2,2021-04-24_11h48.01.269,subsecond_timing_v2,2021.1.2,MacIntel,62.5
space,0.785,space,0.784,,,ms_large,0,16,16,16,1,0.988,0.1,False,None,T03,r2,2021-04-24_11h48.01.269,subsecond_timing_v2,2021.1.2,MacIntel,62.5
space,0.841,space,0.868,,,ms_large,0,17,17,17,1,0.953,0.2,False,None,T03,r2,2021-04-24_11h48.01.269,subsecond_timing_v2,2021.1.2,MacIntel,62.5
space,0.84,space,0.927,,,ms_large,0,18,18,18,1,1.129,0.3,False,None,T03,r2,2021-04-24_11h48.01.269,subsecond_timing_v2,2021.1.2,MacIntel,62.5
space,0.924,space,0.806,,,ms_large,0,19,19,19,1,0.988,0.2,False,None,T03,r2,2021-04-24_11h48.01.269,subsecond_timing_v2,2021.1.2,MacIntel,62.5
space,0.8,space,0.833,,,ms_large,0,20,20,20,1,1.024,0.1,False,None,T03,r2,2021-04-24_11h48.01.269,subsecond_timing_v2,2021.1.2,MacIntel,62.5
space,0.856,space,0.637,,,ms_large,0,21,21,21,1,1.165,0.1,False,None,T03,r2,2021-04-24_11h48.01.269,subsecond_timing_v2,2021.1.2,MacIntel,62.5
space,0.815,space,0.295,,,ms_large,0,22,22,22,1,1.2,0.1,False,None,T03,r2,2021-04-24_11h48.01.269,subsecond_timing_v2,2021.1.2,MacIntel,62.5
space,0.918,space,0.567,,,ms_large,0,23,23,23,1,0.882,0.2,False,None,T03,r2,2021-04-24_11h48.01.269,subsecond_timing_v2,2021.1.2,MacIntel,62.5
space,0.833,space,0.634,,,ms_large,0,24,24,24,1,0.847,0.3,False,None,T03,r2,2021-04-24_11h48.01.269,subsecond_timing_v2,2021.1.2,MacIntel,62.5
space,0.745,space,0.759,,,ms_large,0,25,25,25,1,1.094,0.1,False,None,T03,r2,2021-04-24_11h48.01.269,subsecond_timing_v2,2021.1.2,MacIntel,62.5
space,0.761,space,0.674,,,ms_large,0,26,26,26,1,1.059,0.1,False,None,T03,r2,2021-04-24_11h48.01.269,subsecond_timing_v2,2021.1.2,MacIntel,62.5
space,0.867,space,0.849,,,ms_large,0,27,27,27,1,0.918,0.3,False,None,T03,r2,2021-04-24_11h48.01.269,subsecond_timing_v2,2021.1.2,MacIntel,62.5
space,0.883,space,0.5,,,ms_large,0,28,28,28,1,0.988,0.2,False,None,T03,r2,2021-04-24_11h48.01.269,subsecond_timing_v2,2021.1.2,MacIntel,62.5
space,0.874,space,0.701,,,ms_large,0,29,29,29,1,1.165,0.2,False,None,T03,r2,2021-04-24_11h48.01.269,subsecond_timing_v2,2021.1.2,MacIntel,62.5
space,0.734,space,0.84,,,ms_large,0,30,30,30,1,1.129,0.1,False,None,T03,r2,2021-04-24_11h48.01.269,subsecond_timing_v2,2021.1.2,MacIntel,62.5
space,1.008,space,0.809,,,ms_large,0,31,31,31,1,1.059,0.1,False,None,T03,r2,2021-04-24_11h48.01.269,subsecond_timing_v2,2021.1.2,MacIntel,62.5
space,0.965,space,0.884,,,ms_large,0,32,32,32,1,0.918,0.3,False,None,T03,r2,2021-04-24_11h48.01.269,subsecond_timing_v2,2021.1.2,MacIntel,62.5
space,0.909,space,0.903,,,ms_large,0,33,33,33,1,1.2,0.3,False,None,T03,r2,2021-04-24_11h48.01.269,subsecond_timing_v2,2021.1.2,MacIntel,62.5
space,0.917,space,0.857,,,ms_large,0,34,34,34,1,0.847,0.1,False,None,T03,r2,2021-04-24_11h48.01.269,subsecond_timing_v2,2021.1.2,MacIntel,62.5
space,0.807,space,0.651,,,ms_large,0,35,35,35,1,1.024,0.1,False,None,T03,r2,2021-04-24_11h48.01.269,subsecond_timing_v2,2021.1.2,MacIntel,62.5
space,1.117,space,0.72,,,ms_large,0,36,36,36,1,0.882,0.1,False,None,T03,r2,2021-04-24_11h48.01.269,subsecond_timing_v2,2021.1.2,MacIntel,62.5
space,0.808,space,0.718,,,ms_large,0,37,37,37,1,1.094,0.2,False,None,T03,r2,2021-04-24_11h48.01.269,subsecond_timing_v2,2021.1.2,MacIntel,62.5
space,0.824,space,0.523,,,ms_large,0,38,38,38,1,0.953,0.1,False,None,T03,r2,2021-04-24_11h48.01.269,subsecond_timing_v2,2021.1.2,MacIntel,62.5
space,0.716,space,0.824,,,ms_large,0,39,39,39,1,1.165,0.2,False,None,T03,r2,2021-04-24_11h48.01.269,subsecond_timing_v2,2021.1.2,MacIntel,62.5
space,0.049,space,1.083,,,ms_large,0,40,40,40,1,0.953,0.1,False,None,T03,r2,2021-04-24_11h48.01.269,subsecond_timing_v2,2021.1.2,MacIntel,62.5
space,0.989,space,0.451,,,ms_large,0,41,41,41,1,0.988,0.1,False,None,T03,r2,2021-04-24_11h48.01.269,subsecond_timing_v2,2021.1.2,MacIntel,62.5
space,0.683,space,0.599,,,ms_large,0,42,42,42,1,1.094,0.1,False,None,T03,r2,2021-04-24_11h48.01.269,subsecond_timing_v2,2021.1.2,MacIntel,62.5
space,0.784,space,0.559,,,ms_large,0,43,43,43,1,1.129,0.3,False,None,T03,r2,2021-04-24_11h48.01.269,subsecond_timing_v2,2021.1.2,MacIntel,62.5
space,0.758,space,0.653,,,ms_large,0,44,44,44,1,0.882,0.2,False,None,T03,r2,2021-04-24_11h48.01.269,subsecond_timing_v2,2021.1.2,MacIntel,62.5
space,0.81,space,0.858,,,ms_large,0,45,45,45,1,1.2,0.1,False,None,T03,r2,2021-04-24_11h48.01.269,subsecond_timing_v2,2021.1.2,MacIntel,62.5
space,1.017,space,0.757,,,ms_large,0,46,46,46,1,1.024,0.1,False,None,T03,r2,2021-04-24_11h48.01.269,subsecond_timing_v2,2021.1.2,MacIntel,62.5
space,0.842,space,0.6,,,ms_large,0,47,47,47,1,0.918,0.2,False,None,T03,r2,2021-04-24_11h48.01.269,subsecond_timing_v2,2021.1.2,MacIntel,62.5
space,0.701,space,0.666,,,ms_large,0,48,48,48,1,0.847,0.1,False,None,T03,r2,2021-04-24_11h48.01.269,subsecond_timing_v2,2021.1.2,MacIntel,62.5
space,0.75,space,0.617,,,ms_large,0,49,49,49,1,1.059,0.3,False,None,T03,r2,2021-04-24_11h48.01.269,subsecond_timing_v2,2021.1.2,MacIntel,62.5
space,0.733,space,0.601,,,ms_large,0,50,50,50,1,0.953,0.2,False,None,T03,r2,2021-04-24_11h48.01.269,subsecond_timing_v2,2021.1.2,MacIntel,62.5
space,0.75,space,0.617,,,ms_large,0,51,51,51,1,1.024,0.3,False,None,T03,r2,2021-04-24_11h48.01.269,subsecond_timing_v2,2021.1.2,MacIntel,62.5
space,0.757,space,0.749,,,ms_large,0,52,52,52,1,1.165,0.3,False,None,T03,r2,2021-04-24_11h48.01.269,subsecond_timing_v2,2021.1.2,MacIntel,62.5
space,0.858,space,0.745,,,ms_large,0,53,53,53,1,0.847,0.3,False,None,T03,r2,2021-04-24_11h48.01.269,subsecond_timing_v2,2021.1.2,MacIntel,62.5
space,0.801,space,0.772,,,ms_large,0,54,54,54,1,1.2,0.1,False,None,T03,r2,2021-04-24_11h48.01.269,subsecond_timing_v2,2021.1.2,MacIntel,62.5
space,0.933,space,0.733,,,ms_large,0,55,55,55,1,0.988,0.3,False,None,T03,r2,2021-04-24_11h48.01.269,subsecond_timing_v2,2021.1.2,MacIntel,62.5
space,0.811,space,0.723,,,ms_large,0,56,56,56,1,0.882,0.1,False,None,T03,r2,2021-04-24_11h48.01.269,subsecond_timing_v2,2021.1.2,MacIntel,62.5
space,0.709,space,0.741,,,ms_large,0,57,57,57,1,1.059,0.1,False,None,T03,r2,2021-04-24_11h48.01.269,subsecond_timing_v2,2021.1.2,MacIntel,62.5
space,0.939,space,0.597,,,ms_large,0,58,58,58,1,1.094,0.1,False,None,T03,r2,2021-04-24_11h48.01.269,subsecond_timing_v2,2021.1.2,MacIntel,62.5
space,0.624,space,0.601,,,ms_large,0,59,59,59,1,1.129,0.3,False,None,T03,r2,2021-04-24_11h48.01.269,subsecond_timing_v2,2021.1.2,MacIntel,62.5
space,0.634,space,0.567,,,ms_large,0,60,60,60,1,0.918,0.3,False,None,T03,r2,2021-04-24_11h48.01.269,subsecond_timing_v2,2021.1.2,MacIntel,62.5
space,0.701,space,0.635,,,ms_large,0,61,61,61,1,1.129,0.1,False,None,T03,r2,2021-04-24_11h48.01.269,subsecond_timing_v2,2021.1.2,MacIntel,62.5
space,0.883,space,0.6,,,ms_large,0,62,62,62,1,1.165,0.3,False,None,T03,r2,2021-04-24_11h48.01.269,subsecond_timing_v2,2021.1.2,MacIntel,62.5
space,0.783,space,0.668,,,ms_large,0,63,63,63,1,0.953,0.2,False,None,T03,r2,2021-04-24_11h48.01.269,subsecond_timing_v2,2021.1.2,MacIntel,62.5
space,0.735,space,0.657,,,ms_large,0,64,64,64,1,1.094,0.2,False,None,T03,r2,2021-04-24_11h48.01.269,subsecond_timing_v2,2021.1.2,MacIntel,62.5
space,0.598,space,0.757,,,ms_large,0,65,65,65,1,0.882,0.1,False,None,T03,r2,2021-04-24_11h48.01.269,subsecond_timing_v2,2021.1.2,MacIntel,62.5
space,0.834,space,0.657,,,ms_large,0,66,66,66,1,0.918,0.2,False,None,T03,r2,2021-04-24_11h48.01.269,subsecond_timing_v2,2021.1.2,MacIntel,62.5
space,0.724,space,0.667,,,ms_large,0,67,67,67,1,0.988,0.1,False,None,T03,r2,2021-04-24_11h48.01.269,subsecond_timing_v2,2021.1.2,MacIntel,62.5
space,0.926,space,0.7,,,ms_large,0,68,68,68,1,1.024,0.1,False,None,T03,r2,2021-04-24_11h48.01.269,subsecond_timing_v2,2021.1.2,MacIntel,62.5
space,0.792,space,0.767,,,ms_large,0,69,69,69,1,1.2,0.1,False,None,T03,r2,2021-04-24_11h48.01.269,subsecond_timing_v2,2021.1.2,MacIntel,62.5
space,0.867,space,0.758,,,ms_large,0,70,70,70,1,1.059,0.1,False,None,T03,r2,2021-04-24_11h48.01.269,subsecond_timing_v2,2021.1.2,MacIntel,62.5
space,0.684,space,0.506,,,ms_large,0,71,71,71,1,0.847,0.1,False,None,T03,r2,2021-04-24_11h48.01.269,subsecond_timing_v2,2021.1.2,MacIntel,62.5
space,0.635,space,0.767,,,ms_large,0,72,72,72,1,1.094,0.2,False,None,T03,r2,2021-04-24_11h48.01.269,subsecond_timing_v2,2021.1.2,MacIntel,62.5
space,0.84,space,0.661,,,ms_large,0,73,73,73,1,0.918,0.3,False,None,T03,r2,2021-04-24_11h48.01.269,subsecond_timing_v2,2021.1.2,MacIntel,62.5
space,0.7,space,0.97,,,ms_large,0,74,74,74,1,0.953,0.2,False,None,T03,r2,2021-04-24_11h48.01.269,subsecond_timing_v2,2021.1.2,MacIntel,62.5
space,0.89,space,0.785,,,ms_large,0,75,75,75,1,0.882,0.2,False,None,T03,r2,2021-04-24_11h48.01.269,subsecond_timing_v2,2021.1.2,MacIntel,62.5
space,0.816,space,0.751,,,ms_large,0,76,76,76,1,0.988,0.3,False,None,T03,r2,2021-04-24_11h48.01.269,subsecond_timing_v2,2021.1.2,MacIntel,62.5
space,0.75,space,0.917,,,ms_large,0,77,77,77,1,1.2,0.1,False,None,T03,r2,2021-04-24_11h48.01.269,subsecond_timing_v2,2021.1.2,MacIntel,62.5
space,0.802,space,0.616,,,ms_large,0,78,78,78,1,1.024,0.2,False,None,T03,r2,2021-04-24_11h48.01.269,subsecond_timing_v2,2021.1.2,MacIntel,62.5
space,0.549,space,0.79,,,ms_large,0,79,79,79,1,1.129,0.1,False,None,T03,r2,2021-04-24_11h48.01.269,subsecond_timing_v2,2021.1.2,MacIntel,62.5
space,0.891,space,1.021,,,ms_large,0,80,80,80,1,1.165,0.3,False,None,T03,r2,2021-04-24_11h48.01.269,subsecond_timing_v2,2021.1.2,MacIntel,62.5
space,0.852,space,0.85,,,ms_large,0,81,81,81,1,1.059,0.2,False,None,T03,r2,2021-04-24_11h48.01.269,subsecond_timing_v2,2021.1.2,MacIntel,62.5
space,1.057,space,0.719,,,ms_large,0,82,82,82,1,0.847,0.1,False,None,T03,r2,2021-04-24_11h48.01.269,subsecond_timing_v2,2021.1.2,MacIntel,62.5
space,0.941,space,0.633,,,ms_large,0,83,83,83,1,1.024,0.1,False,None,T03,r2,2021-04-24_11h48.01.269,subsecond_timing_v2,2021.1.2,MacIntel,62.5
space,1.027,space,0.765,,,ms_large,0,84,84,84,1,1.059,0.3,False,None,T03,r2,2021-04-24_11h48.01.269,subsecond_timing_v2,2021.1.2,MacIntel,62.5
space,0.952,space,0.775,,,ms_large,0,85,85,85,1,0.918,0.1,False,None,T03,r2,2021-04-24_11h48.01.269,subsecond_timing_v2,2021.1.2,MacIntel,62.5
space,0.675,space,0.8,,,ms_large,0,86,86,86,1,1.165,0.1,False,None,T03,r2,2021-04-24_11h48.01.269,subsecond_timing_v2,2021.1.2,MacIntel,62.5
space,0.96,space,0.924,,,ms_large,0,87,87,87,1,0.953,0.1,False,None,T03,r2,2021-04-24_11h48.01.269,subsecond_timing_v2,2021.1.2,MacIntel,62.5
space,0.934,space,0.751,,,ms_large,0,88,88,88,1,0.882,0.1,False,None,T03,r2,2021-04-24_11h48.01.269,subsecond_timing_v2,2021.1.2,MacIntel,62.5
space,0.727,space,0.791,,,ms_large,0,89,89,89,1,0.847,0.1,False,None,T03,r2,2021-04-24_11h48.01.269,subsecond_timing_v2,2021.1.2,MacIntel,62.5
space,0.807,space,0.858,,,ms_large,0,90,90,90,1,1.094,0.1,False,None,T03,r2,2021-04-24_11h48.01.269,subsecond_timing_v2,2021.1.2,MacIntel,62.5
space,0.818,space,0.84,,,ms_large,0,91,91,91,1,1.129,0.2,False,None,T03,r2,2021-04-24_11h48.01.269,subsecond_timing_v2,2021.1.2,MacIntel,62.5
space,0.716,space,0.923,,,ms_large,0,92,92,92,1,1.2,0.1,False,None,T03,r2,2021-04-24_11h48.01.269,subsecond_timing_v2,2021.1.2,MacIntel,62.5
space,0.948,space,0.766,,,ms_large,0,93,93,93,1,0.988,0.1,False,None,T03,r2,2021-04-24_11h48.01.269,subsecond_timing_v2,2021.1.2,MacIntel,62.5
space,0.816,space,0.839,,,ms_large,0,94,94,94,1,1.129,0.3,False,None,T03,r2,2021-04-24_11h48.01.269,subsecond_timing_v2,2021.1.2,MacIntel,62.5
space,0.725,space,0.902,,,ms_large,0,95,95,95,1,1.165,0.2,False,None,T03,r2,2021-04-24_11h48.01.269,subsecond_timing_v2,2021.1.2,MacIntel,62.5
space,0.85,space,1.1,,,ms_large,0,96,96,96,1,1.024,0.3,False,None,T03,r2,2021-04-24_11h48.01.269,subsecond_timing_v2,2021.1.2,MacIntel,62.5
space,0.86,space,1.008,,,ms_large,0,97,97,97,1,1.094,0.1,False,None,T03,r2,2021-04-24_11h48.01.269,subsecond_timing_v2,2021.1.2,MacIntel,62.5
space,0.582,space,0.993,,,ms_large,0,98,98,98,1,1.059,0.2,False,None,T03,r2,2021-04-24_11h48.01.269,subsecond_timing_v2,2021.1.2,MacIntel,62.5
space,0.95,space,1.045,,,ms_large,0,99,99,99,1,1.2,0.1,False,None,T03,r2,2021-04-24_11h48.01.269,subsecond_timing_v2,2021.1.2,MacIntel,62.5
space,0.786,space,1.451,,,ms_large,0,100,100,100,1,0.882,0.3,False,None,T03,r2,2021-04-24_11h48.01.269,subsecond_timing_v2,2021.1.2,MacIntel,62.5
space,1.058,space,1.16,,,ms_large,0,101,101,101,1,0.918,0.3,False,None,T03,r2,2021-04-24_11h48.01.269,subsecond_timing_v2,2021.1.2,MacIntel,62.5
space,0.701,space,1.27,,,ms_large,0,102,102,102,1,0.988,0.3,False,None,T03,r2,2021-04-24_11h48.01.269,subsecond_timing_v2,2021.1.2,MacIntel,62.5
space,0.811,space,2.543,,,ms_large,0,103,103,103,1,0.847,0.1,False,None,T03,r2,2021-04-24_11h48.01.269,subsecond_timing_v2,2021.1.2,MacIntel,62.5
space,1.572,space,0.976,,,ms_large,0,104,104,104,1,0.953,0.3,False,None,T03,r2,2021-04-24_11h48.01.269,subsecond_timing_v2,2021.1.2,MacIntel,62.5
space,0.699,space,0.799,,,ms_large,0,105,105,105,1,0.847,0.3,False,None,T03,r2,2021-04-24_11h48.01.269,subsecond_timing_v2,2021.1.2,MacIntel,62.5
space,0.826,space,1.217,,,ms_large,0,106,106,106,1,1.094,0.3,False,None,T03,r2,2021-04-24_11h48.01.269,subsecond_timing_v2,2021.1.2,MacIntel,62.5
space,0.95,space,0.874,,,ms_large,0,107,107,107,1,1.129,0.3,False,None,T03,r2,2021-04-24_11h48.01.269,subsecond_timing_v2,2021.1.2,MacIntel,62.5
space,0.683,space,1.267,,,ms_large,0,108,108,108,1,0.882,0.3,False,None,T03,r2,2021-04-24_11h48.01.269,subsecond_timing_v2,2021.1.2,MacIntel,62.5
space,0.779,space,0.879,,,ms_large,0,109,109,109,1,0.953,0.2,False,None,T03,r2,2021-04-24_11h48.01.269,subsecond_timing_v2,2021.1.2,MacIntel,62.5
space,0.716,space,0.79,,,ms_large,0,110,110,110,1,0.988,0.1,False,None,T03,r2,2021-04-24_11h48.01.269,subsecond_timing_v2,2021.1.2,MacIntel,62.5
space,0.807,space,1.139,,,ms_large,0,111,111,111,1,1.165,0.3,False,None,T03,r2,2021-04-24_11h48.01.269,subsecond_timing_v2,2021.1.2,MacIntel,62.5
space,0.867,space,1.351,,,ms_large,0,112,112,112,1,0.918,0.2,False,None,T03,r2,2021-04-24_11h48.01.269,subsecond_timing_v2,2021.1.2,MacIntel,62.5
space,0.798,space,1.077,,,ms_large,0,113,113,113,1,1.059,0.3,False,None,T03,r2,2021-04-24_11h48.01.269,subsecond_timing_v2,2021.1.2,MacIntel,62.5
space,0.991,space,1.267,,,ms_large,0,114,114,114,1,1.2,0.2,False,None,T03,r2,2021-04-24_11h48.01.269,subsecond_timing_v2,2021.1.2,MacIntel,62.5
space,0.986,space,1.482,,,ms_large,0,115,115,115,1,1.024,0.3,False,None,T03,r2,2021-04-24_11h48.01.269,subsecond_timing_v2,2021.1.2,MacIntel,62.5
space,0.86,space,1.117,,,ms_large,0,116,116,116,1,1.129,0.3,False,None,T03,r2,2021-04-24_11h48.01.269,subsecond_timing_v2,2021.1.2,MacIntel,62.5
space,0.706,space,1.428,,,ms_large,0,117,117,117,1,1.2,0.3,False,None,T03,r2,2021-04-24_11h48.01.269,subsecond_timing_v2,2021.1.2,MacIntel,62.5
space,1.835,space,0.947,,,ms_large,0,118,118,118,1,1.024,0.3,False,None,T03,r2,2021-04-24_11h48.01.269,subsecond_timing_v2,2021.1.2,MacIntel,62.5
space,0.732,space,1.084,,,ms_large,0,119,119,119,1,1.094,0.1,False,None,T03,r2,2021-04-24_11h48.01.269,subsecond_timing_v2,2021.1.2,MacIntel,62.5
space,0.735,space,1.006,,,ms_large,0,120,120,120,1,1.059,0.1,False,None,T03,r2,2021-04-24_11h48.01.269,subsecond_timing_v2,2021.1.2,MacIntel,62.5
space,0.701,space,1.109,,,ms_large,0,121,121,121,1,0.988,0.2,False,None,T03,r2,2021-04-24_11h48.01.269,subsecond_timing_v2,2021.1.2,MacIntel,62.5
space,0.9,space,1.01,,,ms_large,0,122,122,122,1,0.847,0.3,False,None,T03,r2,2021-04-24_11h48.01.269,subsecond_timing_v2,2021.1.2,MacIntel,62.5
space,0.723,space,1.04,,,ms_large,0,123,123,123,1,0.953,0.2,False,None,T03,r2,2021-04-24_11h48.01.269,subsecond_timing_v2,2021.1.2,MacIntel,62.5
space,1.085,space,1.056,,,ms_large,0,124,124,124,1,0.918,0.2,False,None,T03,r2,2021-04-24_11h48.01.269,subsecond_timing_v2,2021.1.2,MacIntel,62.5
space,0.939,space,0.944,,,ms_large,0,125,125,125,1,1.165,0.2,False,None,T03,r2,2021-04-24_11h48.01.269,subsecond_timing_v2,2021.1.2,MacIntel,62.5
space,0.926,space,0.917,,,ms_large,0,126,126,126,1,0.882,0.3,False,None,T03,r2,2021-04-24_11h48.01.269,subsecond_timing_v2,2021.1.2,MacIntel,62.5
space,0.994,space,0.832,,,ms_large,0,127,127,127,1,0.882,0.2,False,None,T03,r2,2021-04-24_11h48.01.269,subsecond_timing_v2,2021.1.2,MacIntel,62.5
space,0.983,space,0.983,,,ms_large,0,128,128,128,1,1.094,0.2,False,None,T03,r2,2021-04-24_11h48.01.269,subsecond_timing_v2,2021.1.2,MacIntel,62.5
space,0.919,space,0.966,,,ms_large,0,129,129,129,1,1.024,0.3,False,None,T03,r2,2021-04-24_11h48.01.269,subsecond_timing_v2,2021.1.2,MacIntel,62.5
space,0.919,space,1.149,,,ms_large,0,130,130,130,1,0.847,0.1,False,None,T03,r2,2021-04-24_11h48.01.269,subsecond_timing_v2,2021.1.2,MacIntel,62.5
space,1.048,space,0.85,,,ms_large,0,131,131,131,1,1.2,0.1,False,None,T03,r2,2021-04-24_11h48.01.269,subsecond_timing_v2,2021.1.2,MacIntel,62.5
space,0.874,space,0.816,,,ms_large,0,132,132,132,1,1.059,0.3,False,None,T03,r2,2021-04-24_11h48.01.269,subsecond_timing_v2,2021.1.2,MacIntel,62.5
space,0.658,space,0.599,,,ms_large,0,133,133,133,1,0.918,0.1,False,None,T03,r2,2021-04-24_11h48.01.269,subsecond_timing_v2,2021.1.2,MacIntel,62.5
space,0.802,space,0.851,,,ms_large,0,134,134,134,1,1.129,0.3,False,None,T03,r2,2021-04-24_11h48.01.269,subsecond_timing_v2,2021.1.2,MacIntel,62.5
space,0.833,space,1.001,,,ms_large,0,135,135,135,1,1.165,0.2,False,None,T03,r2,2021-04-24_11h48.01.269,subsecond_timing_v2,2021.1.2,MacIntel,62.5
space,0.951,space,0.975,,,ms_large,0,136,136,136,1,0.953,0.1,False,None,T03,r2,2021-04-24_11h48.01.269,subsecond_timing_v2,2021.1.2,MacIntel,62.5
space,0.967,space,0.983,,,ms_large,0,137,137,137,1,0.988,0.3,False,None,T03,r2,2021-04-24_11h48.01.269,subsecond_timing_v2,2021.1.2,MacIntel,62.5
space,0.85,space,0.768,,,ms_large,0,138,138,138,1,0.847,0.1,False,None,T03,r2,2021-04-24_11h48.01.269,subsecond_timing_v2,2021.1.2,MacIntel,62.5
space,0.751,space,0.694,,,ms_large,0,139,139,139,1,0.882,0.1,False,None,T03,r2,2021-04-24_11h48.01.269,subsecond_timing_v2,2021.1.2,MacIntel,62.5
space,0.818,space,0.817,,,ms_large,0,140,140,140,1,0.988,0.3,False,None,T03,r2,2021-04-24_11h48.01.269,subsecond_timing_v2,2021.1.2,MacIntel,62.5
space,0.758,space,0.7,,,ms_large,0,141,141,141,1,0.953,0.1,False,None,T03,r2,2021-04-24_11h48.01.269,subsecond_timing_v2,2021.1.2,MacIntel,62.5
space,0.806,space,0.801,,,ms_large,0,142,142,142,1,1.165,0.2,False,None,T03,r2,2021-04-24_11h48.01.269,subsecond_timing_v2,2021.1.2,MacIntel,62.5
space,0.867,space,0.767,,,ms_large,0,143,143,143,1,1.059,0.3,False,None,T03,r2,2021-04-24_11h48.01.269,subsecond_timing_v2,2021.1.2,MacIntel,62.5
space,0.923,space,0.957,,,ms_large,0,144,144,144,1,1.2,0.1,False,None,T03,r2,2021-04-24_11h48.01.269,subsecond_timing_v2,2021.1.2,MacIntel,62.5
space,0.809,space,0.891,,,ms_large,0,145,145,145,1,1.094,0.2,False,None,T03,r2,2021-04-24_11h48.01.269,subsecond_timing_v2,2021.1.2,MacIntel,62.5
space,0.817,space,0.856,,,ms_large,0,146,146,146,1,1.024,0.3,False,None,T03,r2,2021-04-24_11h48.01.269,subsecond_timing_v2,2021.1.2,MacIntel,62.5
space,0.993,space,1.018,,,ms_large,0,147,147,147,1,0.918,0.2,False,None,T03,r2,2021-04-24_11h48.01.269,subsecond_timing_v2,2021.1.2,MacIntel,62.5
space,0.801,space,0.951,,,ms_large,0,148,148,148,1,1.129,0.3,False,None,T03,r2,2021-04-24_11h48.01.269,subsecond_timing_v2,2021.1.2,MacIntel,62.5
space,1.006,space,1.164,,,ms_large,0,149,149,149,1,1.165,0.3,False,None,T03,r2,2021-04-24_11h48.01.269,subsecond_timing_v2,2021.1.2,MacIntel,62.5
space,0.875,space,0.991,,,ms_large,0,150,150,150,1,0.882,0.1,False,None,T03,r2,2021-04-24_11h48.01.269,subsecond_timing_v2,2021.1.2,MacIntel,62.5
space,1.175,space,0.925,,,ms_large,0,151,151,151,1,1.2,0.2,False,None,T03,r2,2021-04-24_11h48.01.269,subsecond_timing_v2,2021.1.2,MacIntel,62.5
space,1.218,space,0.89,,,ms_large,0,152,152,152,1,0.953,0.3,False,None,T03,r2,2021-04-24_11h48.01.269,subsecond_timing_v2,2021.1.2,MacIntel,62.5
space,1.034,space,0.916,,,ms_large,0,153,153,153,1,1.059,0.3,False,None,T03,r2,2021-04-24_11h48.01.269,subsecond_timing_v2,2021.1.2,MacIntel,62.5
space,1.052,space,1.007,,,ms_large,0,154,154,154,1,0.918,0.2,False,None,T03,r2,2021-04-24_11h48.01.269,subsecond_timing_v2,2021.1.2,MacIntel,62.5
space,0.918,space,1.076,,,ms_large,0,155,155,155,1,0.847,0.2,False,None,T03,r2,2021-04-24_11h48.01.269,subsecond_timing_v2,2021.1.2,MacIntel,62.5
space,0.922,space,1.234,,,ms_large,0,156,156,156,1,1.129,0.3,False,None,T03,r2,2021-04-24_11h48.01.269,subsecond_timing_v2,2021.1.2,MacIntel,62.5
space,0.933,space,0.933,,,ms_large,0,157,157,157,1,1.024,0.1,False,None,T03,r2,2021-04-24_11h48.01.269,subsecond_timing_v2,2021.1.2,MacIntel,62.5
space,0.924,space,0.983,,,ms_large,0,158,158,158,1,0.988,0.2,False,None,T03,r2,2021-04-24_11h48.01.269,subsecond_timing_v2,2021.1.2,MacIntel,62.5
space,1.299,space,1.057,,,ms_large,0,159,159,159,1,1.094,0.2,False,None,T03,r2,2021-04-24_11h48.01.269,subsecond_timing_v2,2021.1.2,MacIntel,62.5
space,0.961,space,1.083,,,ms_large,0,160,160,160,1,1.129,0.2,False,None,T03,r2,2021-04-24_11h48.01.269,subsecond_timing_v2,2021.1.2,MacIntel,62.5
space,1.058,space,0.982,,,ms_large,0,161,161,161,1,0.953,0.2,False,None,T03,r2,2021-04-24_11h48.01.269,subsecond_timing_v2,2021.1.2,MacIntel,62.5
space,1.016,space,1.116,,,ms_large,0,162,162,162,1,0.847,0.3,False,None,T03,r2,2021-04-24_11h48.01.269,subsecond_timing_v2,2021.1.2,MacIntel,62.5
space,1.034,space,0.827,,,ms_large,0,163,163,163,1,0.988,0.1,False,None,T03,r2,2021-04-24_11h48.01.269,subsecond_timing_v2,2021.1.2,MacIntel,62.5
space,0.901,space,0.957,,,ms_large,0,164,164,164,1,0.882,0.1,False,None,T03,r2,2021-04-24_11h48.01.269,subsecond_timing_v2,2021.1.2,MacIntel,62.5
space,0.841,space,0.874,,,ms_large,0,165,165,165,1,1.094,0.1,False,None,T03,r2,2021-04-24_11h48.01.269,subsecond_timing_v2,2021.1.2,MacIntel,62.5
space,0.94,space,0.883,,,ms_large,0,166,166,166,1,0.918,0.2,False,None,T03,r2,2021-04-24_11h48.01.269,subsecond_timing_v2,2021.1.2,MacIntel,62.5
space,0.909,space,0.883,,,ms_large,0,167,167,167,1,1.024,0.3,False,None,T03,r2,2021-04-24_11h48.01.269,subsecond_timing_v2,2021.1.2,MacIntel,62.5
space,0.985,space,0.884,,,ms_large,0,168,168,168,1,1.059,0.1,False,None,T03,r2,2021-04-24_11h48.01.269,subsecond_timing_v2,2021.1.2,MacIntel,62.5
space,1.136,space,0.79,,,ms_large,0,169,169,169,1,1.2,0.3,False,None,T03,r2,2021-04-24_11h48.01.269,subsecond_timing_v2,2021.1.2,MacIntel,62.5
space,1.073,space,0.86,,,ms_large,0,170,170,170,1,1.165,0.3,False,None,T03,r2,2021-04-24_11h48.01.269,subsecond_timing_v2,2021.1.2,MacIntel,62.5
space,1.051,space,0.773,,,ms_large,0,171,171,171,1,1.094,0.1,False,None,T03,r2,2021-04-24_11h48.01.269,subsecond_timing_v2,2021.1.2,MacIntel,62.5
space,0.773,space,0.92,,,ms_large,0,172,172,172,1,1.024,0.1,False,None,T03,r2,2021-04-24_11h48.01.269,subsecond_timing_v2,2021.1.2,MacIntel,62.5
space,0.927,space,0.793,,,ms_large,0,173,173,173,1,0.988,0.2,False,None,T03,r2,2021-04-24_11h48.01.269,subsecond_timing_v2,2021.1.2,MacIntel,62.5
space,0.952,space,0.766,,,ms_large,0,174,174,174,1,1.165,0.3,False,None,T03,r2,2021-04-24_11h48.01.269,subsecond_timing_v2,2021.1.2,MacIntel,62.5
space,1.017,space,0.834,,,ms_large,0,175,175,175,1,0.847,0.1,False,None,T03,r2,2021-04-24_11h48.01.269,subsecond_timing_v2,2021.1.2,MacIntel,62.5
space,0.967,space,0.906,,,ms_large,0,176,176,176,1,1.2,0.1,False,None,T03,r2,2021-04-24_11h48.01.269,subsecond_timing_v2,2021.1.2,MacIntel,62.5
space,0.891,space,0.909,,,ms_large,0,177,177,177,1,0.882,0.1,False,None,T03,r2,2021-04-24_11h48.01.269,subsecond_timing_v2,2021.1.2,MacIntel,62.5
space,0.735,space,0.75,,,ms_large,0,178,178,178,1,1.129,0.1,False,None,T03,r2,2021-04-24_11h48.01.269,subsecond_timing_v2,2021.1.2,MacIntel,62.5
space,0.8,space,0.672,,,ms_large,0,179,179,179,1,0.953,0.1,False,None,T03,r2,2021-04-24_11h48.01.269,subsecond_timing_v2,2021.1.2,MacIntel,62.5
space,0.881,space,0.639,,,ms_large,0,180,180,180,1,0.918,0.3,False,None,T03,r2,2021-04-24_11h48.01.269,subsecond_timing_v2,2021.1.2,MacIntel,62.5
space,0.867,space,0.703,,,ms_large,0,181,181,181,1,1.059,0.2,False,None,T03,r2,2021-04-24_11h48.01.269,subsecond_timing_v2,2021.1.2,MacIntel,62.5
space,0.933,space,0.74,,,ms_large,0,182,182,182,1,1.165,0.1,False,None,T03,r2,2021-04-24_11h48.01.269,subsecond_timing_v2,2021.1.2,MacIntel,62.5
space,0.922,space,0.725,,,ms_large,0,183,183,183,1,1.024,0.3,False,None,T03,r2,2021-04-24_11h48.01.269,subsecond_timing_v2,2021.1.2,MacIntel,62.5
space,1.016,space,0.749,,,ms_large,0,184,184,184,1,1.2,0.2,False,None,T03,r2,2021-04-24_11h48.01.269,subsecond_timing_v2,2021.1.2,MacIntel,62.5
space,0.867,space,0.758,,,ms_large,0,185,185,185,1,0.882,0.3,False,None,T03,r2,2021-04-24_11h48.01.269,subsecond_timing_v2,2021.1.2,MacIntel,62.5
space,1.05,space,0.857,,,ms_large,0,186,186,186,1,1.129,0.3,False,None,T03,r2,2021-04-24_11h48.01.269,subsecond_timing_v2,2021.1.2,MacIntel,62.5
space,0.968,space,0.685,,,ms_large,0,187,187,187,1,0.953,0.1,False,None,T03,r2,2021-04-24_11h48.01.269,subsecond_timing_v2,2021.1.2,MacIntel,62.5
space,0.935,space,0.917,,,ms_large,0,188,188,188,1,0.988,0.1,False,None,T03,r2,2021-04-24_11h48.01.269,subsecond_timing_v2,2021.1.2,MacIntel,62.5
space,1.044,space,0.885,,,ms_large,0,189,189,189,1,0.918,0.3,False,None,T03,r2,2021-04-24_11h48.01.269,subsecond_timing_v2,2021.1.2,MacIntel,62.5
space,0.906,space,0.949,,,ms_large,0,190,190,190,1,1.059,0.2,False,None,T03,r2,2021-04-24_11h48.01.269,subsecond_timing_v2,2021.1.2,MacIntel,62.5
space,0.966,space,0.785,,,ms_large,0,191,191,191,1,0.847,0.3,False,None,T03,r2,2021-04-24_11h48.01.269,subsecond_timing_v2,2021.1.2,MacIntel,62.5
space,0.918,space,0.891,,,ms_large,0,192,192,192,1,1.094,0.3,False,None,T03,r2,2021-04-24_11h48.01.269,subsecond_timing_v2,2021.1.2,MacIntel,62.5
space,1.335,space,0.724,,,ms_large,0,193,193,193,1,0.847,0.1,False,None,T03,r2,2021-04-24_11h48.01.269,subsecond_timing_v2,2021.1.2,MacIntel,62.5
space,1.923,space,0.635,,,ms_large,0,194,194,194,1,1.2,0.2,False,None,T03,r2,2021-04-24_11h48.01.269,subsecond_timing_v2,2021.1.2,MacIntel,62.5
space,0.869,space,0.733,,,ms_large,0,195,195,195,1,0.918,0.3,False,None,T03,r2,2021-04-24_11h48.01.269,subsecond_timing_v2,2021.1.2,MacIntel,62.5
space,0.795,space,0.674,,,ms_large,0,196,196,196,1,1.024,0.2,False,None,T03,r2,2021-04-24_11h48.01.269,subsecond_timing_v2,2021.1.2,MacIntel,62.5
space,0.674,space,0.75,,,ms_large,0,197,197,197,1,1.094,0.1,False,None,T03,r2,2021-04-24_11h48.01.269,subsecond_timing_v2,2021.1.2,MacIntel,62.5
space,0.643,space,0.69,,,ms_large,0,198,198,198,1,0.953,0.1,False,None,T03,r2,2021-04-24_11h48.01.269,subsecond_timing_v2,2021.1.2,MacIntel,62.5
space,0.616,space,0.82,,,ms_large,0,199,199,199,1,1.129,0.3,False,None,T03,r2,2021-04-24_11h48.01.269,subsecond_timing_v2,2021.1.2,MacIntel,62.5
space,0.8,space,0.916,,,ms_large,0,200,200,200,1,0.988,0.1,False,None,T03,r2,2021-04-24_11h48.01.269,subsecond_timing_v2,2021.1.2,MacIntel,62.5
space,0.755,space,0.737,,,ms_large,0,201,201,201,1,0.882,0.3,False,None,T03,r2,2021-04-24_11h48.01.269,subsecond_timing_v2,2021.1.2,MacIntel,62.5
space,0.883,space,1.021,,,ms_large,0,202,202,202,1,1.059,0.3,False,None,T03,r2,2021-04-24_11h48.01.269,subsecond_timing_v2,2021.1.2,MacIntel,62.5
space,0.834,space,0.683,,,ms_large,0,203,203,203,1,1.165,0.2,False,None,T03,r2,2021-04-24_11h48.01.269,subsecond_timing_v2,2021.1.2,MacIntel,62.5
space,0.919,space,0.751,,,ms_large,0,204,204,204,1,0.953,0.2,False,None,T03,r2,2021-04-24_11h48.01.269,subsecond_timing_v2,2021.1.2,MacIntel,62.5
space,0.91,space,1.185,,,ms_large,0,205,205,205,1,1.094,0.3,False,None,T03,r2,2021-04-24_11h48.01.269,subsecond_timing_v2,2021.1.2,MacIntel,62.5
space,0.958,space,0.79,,,ms_large,0,206,206,206,1,1.2,0.2,False,None,T03,r2,2021-04-24_11h48.01.269,subsecond_timing_v2,2021.1.2,MacIntel,62.5
space,1.009,space,0.837,,,ms_large,0,207,207,207,1,1.024,0.1,False,None,T03,r2,2021-04-24_11h48.01.269,subsecond_timing_v2,2021.1.2,MacIntel,62.5
space,0.838,space,0.976,,,ms_large,0,208,208,208,1,0.847,0.3,False,None,T03,r2,2021-04-24_11h48.01.269,subsecond_timing_v2,2021.1.2,MacIntel,62.5
space,0.859,space,0.933,,,ms_large,0,209,209,209,1,1.129,0.2,False,None,T03,r2,2021-04-24_11h48.01.269,subsecond_timing_v2,2021.1.2,MacIntel,62.5
space,0.941,space,0.915,,,ms_large,0,210,210,210,1,1.165,0.3,False,None,T03,r2,2021-04-24_11h48.01.269,subsecond_timing_v2,2021.1.2,MacIntel,62.5
space,1.132,space,0.973,,,ms_large,0,211,211,211,1,0.988,0.3,False,None,T03,r2,2021-04-24_11h48.01.269,subsecond_timing_v2,2021.1.2,MacIntel,62.5
space,1.001,space,0.773,,,ms_large,0,212,212,212,1,0.882,0.3,False,None,T03,r2,2021-04-24_11h48.01.269,subsecond_timing_v2,2021.1.2,MacIntel,62.5
space,0.809,space,0.942,,,ms_large,0,213,213,213,1,1.059,0.2,False,None,T03,r2,2021-04-24_11h48.01.269,subsecond_timing_v2,2021.1.2,MacIntel,62.5
space,0.867,space,0.583,,,ms_large,0,214,214,214,1,0.918,0.3,False,None,T03,r2,2021-04-24_11h48.01.269,subsecond_timing_v2,2021.1.2,MacIntel,62.5
space,1.1,space,1.001,,,ms_large,0,215,215,215,1,0.953,0.2,False,None,T03,r2,2021-04-24_11h48.01.269,subsecond_timing_v2,2021.1.2,MacIntel,62.5
space,0.891,space,0.891,,,ms_large,0,216,216,216,1,0.847,0.3,False,None,T03,r2,2021-04-24_11h48.01.269,subsecond_timing_v2,2021.1.2,MacIntel,62.5
space,0.95,space,0.895,,,ms_large,0,217,217,217,1,1.024,0.1,False,None,T03,r2,2021-04-24_11h48.01.269,subsecond_timing_v2,2021.1.2,MacIntel,62.5
space,0.925,space,1.006,,,ms_large,0,218,218,218,1,1.059,0.3,False,None,T03,r2,2021-04-24_11h48.01.269,subsecond_timing_v2,2021.1.2,MacIntel,62.5
space,1.501,space,0.866,,,ms_large,0,219,219,219,1,0.988,0.1,False,None,T03,r2,2021-04-24_11h48.01.269,subsecond_timing_v2,2021.1.2,MacIntel,62.5
space,1.333,space,0.724,,,ms_large,0,220,220,220,1,1.094,0.1,False,None,T03,r2,2021-04-24_11h48.01.269,subsecond_timing_v2,2021.1.2,MacIntel,62.5
space,0.722,space,0.838,,,ms_large,0,221,221,221,1,0.918,0.3,False,None,T03,r2,2021-04-24_11h48.01.269,subsecond_timing_v2,2021.1.2,MacIntel,62.5
space,0.689,space,0.704,,,ms_large,0,222,222,222,1,0.882,0.1,False,None,T03,r2,2021-04-24_11h48.01.269,subsecond_timing_v2,2021.1.2,MacIntel,62.5
space,0.892,space,0.899,,,ms_large,0,223,223,223,1,1.129,0.2,False,None,T03,r2,2021-04-24_11h48.01.269,subsecond_timing_v2,2021.1.2,MacIntel,62.5
space,0.866,space,0.867,,,ms_large,0,224,224,224,1,1.165,0.3,False,None,T03,r2,2021-04-24_11h48.01.269,subsecond_timing_v2,2021.1.2,MacIntel,62.5
space,0.85,space,0.844,,,ms_large,0,225,225,225,1,1.2,0.3,False,None,T03,r2,2021-04-24_11h48.01.269,subsecond_timing_v2,2021.1.2,MacIntel,62.5
