key_resp_start.keys,key_resp_start.rt,key_resp_stop.keys,key_resp_stop.rt,feedback_range,hit,stimulus_range,trials.thisRepN,trials.thisTrialN,trials.thisN,trials.thisIndex,trials.ran,stimulus_duration,onset,feedback,feedback_range_fromfile,participant,session,date,expName,psychopyVersion,OS,frameRate
space,1.08131,space,0.97134,0.3,TRUE,Training,0,0,0,0,1,1,0.3,True,0.3,T04,r1,2021-05-01_16h35.03.234,subsecond_timing_v2,2021.1.2,Win32,60.90133983
space,0.996935,space,0.81462,0.3,TRUE,Training,0,1,1,1,1,0.75,0.1,True,0.3,T04,r1,2021-05-01_16h35.03.234,subsecond_timing_v2,2021.1.2,Win32,60.90133983
space,0.83162,space,0.57487,0.3,TRUE,Training,0,2,2,2,1,0.5,0.1,True,0.3,T04,r1,2021-05-01_16h35.03.234,subsecond_timing_v2,2021.1.2,Win32,60.90133983
space,0.664055,space,0.564635,0.3,TRUE,Training,0,3,3,3,1,0.5,0.2,True,0.3,T04,r1,2021-05-01_16h35.03.234,subsecond_timing_v2,2021.1.2,Win32,60.90133983
space,0.64974,space,0.649595,0.3,TRUE,Training,0,4,4,4,1,0.75,0.2,True,0.3,T04,r1,2021-05-01_16h35.03.234,subsecond_timing_v2,2021.1.2,Win32,60.90133983
space,0.54898,space,0.880675,0.3,TRUE,Training,0,5,5,5,1,1,0.3,True,0.3,T04,r1,2021-05-01_16h35.03.234,subsecond_timing_v2,2021.1.2,Win32,60.90133983
space,0.83723,space,0.96431,,,ms_small,0,6,6,6,1,0.706,0.2,False,None,T04,r1,2021-05-01_16h35.03.234,subsecond_timing_v2,2021.1.2,Win32,60.90133983
space,0.731815,space,0.6862,,,ms_small,0,7,7,7,1,0.812,0.3,False,None,T04,r1,2021-05-01_16h35.03.234,subsecond_timing_v2,2021.1.2,Win32,60.90133983
space,0.769735,space,0.834165,,,ms_small,0,8,8,8,1,0.847,0.1,False,None,T04,r1,2021-05-01_16h35.03.234,subsecond_timing_v2,2021.1.2,Win32,60.90133983
space,0.68695,space,0.62283,,,ms_small,0,9,9,9,1,0.67,0.3,False,None,T04,r1,2021-05-01_16h35.03.234,subsecond_timing_v2,2021.1.2,Win32,60.90133983
space,0.664785,space,0.732565,,,ms_small,0,10,10,10,1,0.988,0.1,False,None,T04,r1,2021-05-01_16h35.03.234,subsecond_timing_v2,2021.1.2,Win32,60.90133983
space,0.687525,space,0.8993,,,ms_small,0,11,11,11,1,0.953,0.1,False,None,T04,r1,2021-05-01_16h35.03.234,subsecond_timing_v2,2021.1.2,Win32,60.90133983
space,0.8379,space,0.846835,,,ms_small,0,12,12,12,1,0.882,0.3,False,None,T04,r1,2021-05-01_16h35.03.234,subsecond_timing_v2,2021.1.2,Win32,60.90133983
space,0.8844,space,0.968805,,,ms_small,0,13,13,13,1,0.918,0.1,False,None,T04,r1,2021-05-01_16h35.03.234,subsecond_timing_v2,2021.1.2,Win32,60.90133983
space,0.850985,space,0.91939,,,ms_small,0,14,14,14,1,0.776,0.2,False,None,T04,r1,2021-05-01_16h35.03.234,subsecond_timing_v2,2021.1.2,Win32,60.90133983
space,0.79966,space,0.83597,,,ms_small,0,15,15,15,1,0.741,0.3,False,None,T04,r1,2021-05-01_16h35.03.234,subsecond_timing_v2,2021.1.2,Win32,60.90133983
space,0.85202,space,0.970545,,,ms_small,0,16,16,16,1,1.024,0.3,False,None,T04,r1,2021-05-01_16h35.03.234,subsecond_timing_v2,2021.1.2,Win32,60.90133983
space,0.77982,space,0.949175,,,ms_small,0,17,17,17,1,0.67,0.1,False,None,T04,r1,2021-05-01_16h35.03.234,subsecond_timing_v2,2021.1.2,Win32,60.90133983
space,0.83457,space,0.88197,,,ms_small,0,18,18,18,1,0.812,0.3,False,None,T04,r1,2021-05-01_16h35.03.234,subsecond_timing_v2,2021.1.2,Win32,60.90133983
space,0.824615,space,0.913545,,,ms_small,0,19,19,19,1,0.953,0.3,False,None,T04,r1,2021-05-01_16h35.03.234,subsecond_timing_v2,2021.1.2,Win32,60.90133983
space,0.777555,space,0.89756,,,ms_small,0,20,20,20,1,0.776,0.1,False,None,T04,r1,2021-05-01_16h35.03.234,subsecond_timing_v2,2021.1.2,Win32,60.90133983
space,0.801005,space,0.96129,,,ms_small,0,21,21,21,1,0.741,0.2,False,None,T04,r1,2021-05-01_16h35.03.234,subsecond_timing_v2,2021.1.2,Win32,60.90133983
space,0.748045,space,1.01237,,,ms_small,0,22,22,22,1,0.847,0.2,False,None,T04,r1,2021-05-01_16h35.03.234,subsecond_timing_v2,2021.1.2,Win32,60.90133983
space,0.672485,space,0.854855,,,ms_small,0,23,23,23,1,1.024,0.1,False,None,T04,r1,2021-05-01_16h35.03.234,subsecond_timing_v2,2021.1.2,Win32,60.90133983
space,0.81683,space,0.8523,,,ms_small,0,24,24,24,1,0.882,0.3,False,None,T04,r1,2021-05-01_16h35.03.234,subsecond_timing_v2,2021.1.2,Win32,60.90133983
space,0.83323,space,0.93012,,,ms_small,0,25,25,25,1,0.988,0.1,False,None,T04,r1,2021-05-01_16h35.03.234,subsecond_timing_v2,2021.1.2,Win32,60.90133983
space,0.77092,space,1.02768,,,ms_small,0,26,26,26,1,0.706,0.2,False,None,T04,r1,2021-05-01_16h35.03.234,subsecond_timing_v2,2021.1.2,Win32,60.90133983
space,0.74225,space,0.879155,,,ms_small,0,27,27,27,1,0.918,0.3,False,None,T04,r1,2021-05-01_16h35.03.234,subsecond_timing_v2,2021.1.2,Win32,60.90133983
space,0.762965,space,1.001315,,,ms_small,0,28,28,28,1,0.706,0.1,False,None,T04,r1,2021-05-01_16h35.03.234,subsecond_timing_v2,2021.1.2,Win32,60.90133983
space,0.845775,space,0.954265,,,ms_small,0,29,29,29,1,0.918,0.1,False,None,T04,r1,2021-05-01_16h35.03.234,subsecond_timing_v2,2021.1.2,Win32,60.90133983
space,0.718385,space,0.705595,,,ms_small,0,30,30,30,1,0.67,0.2,False,None,T04,r1,2021-05-01_16h35.03.234,subsecond_timing_v2,2021.1.2,Win32,60.90133983
space,0.867135,space,0.897935,,,ms_small,0,31,31,31,1,0.988,0.1,False,None,T04,r1,2021-05-01_16h35.03.234,subsecond_timing_v2,2021.1.2,Win32,60.90133983
space,0.801535,space,0.99696,,,ms_small,0,32,32,32,1,0.953,0.2,False,None,T04,r1,2021-05-01_16h35.03.234,subsecond_timing_v2,2021.1.2,Win32,60.90133983
space,0.78921,space,0.89112,,,ms_small,0,33,33,33,1,0.776,0.1,False,None,T04,r1,2021-05-01_16h35.03.234,subsecond_timing_v2,2021.1.2,Win32,60.90133983
space,0.72078,space,0.97889,,,ms_small,0,34,34,34,1,0.847,0.1,False,None,T04,r1,2021-05-01_16h35.03.234,subsecond_timing_v2,2021.1.2,Win32,60.90133983
space,0.68398,space,0.632305,,,ms_small,0,35,35,35,1,0.741,0.2,False,None,T04,r1,2021-05-01_16h35.03.234,subsecond_timing_v2,2021.1.2,Win32,60.90133983
space,0.77063,space,0.93312,,,ms_small,0,36,36,36,1,0.812,0.1,False,None,T04,r1,2021-05-01_16h35.03.234,subsecond_timing_v2,2021.1.2,Win32,60.90133983
space,0.71935,space,0.979495,,,ms_small,0,37,37,37,1,0.882,0.1,False,None,T04,r1,2021-05-01_16h35.03.234,subsecond_timing_v2,2021.1.2,Win32,60.90133983
space,0.582395,space,1.030615,,,ms_small,0,38,38,38,1,1.024,0.3,False,None,T04,r1,2021-05-01_16h35.03.234,subsecond_timing_v2,2021.1.2,Win32,60.90133983
space,0.965755,space,1.20936,,,ms_small,0,39,39,39,1,0.847,0.2,False,None,T04,r1,2021-05-01_16h35.03.234,subsecond_timing_v2,2021.1.2,Win32,60.90133983
space,0.78396,space,1.146915,,,ms_small,0,40,40,40,1,0.918,0.2,False,None,T04,r1,2021-05-01_16h35.03.234,subsecond_timing_v2,2021.1.2,Win32,60.90133983
space,0.771475,space,0.963835,,,ms_small,0,41,41,41,1,0.953,0.1,False,None,T04,r1,2021-05-01_16h35.03.234,subsecond_timing_v2,2021.1.2,Win32,60.90133983
space,0.800405,space,1.061725,,,ms_small,0,42,42,42,1,0.882,0.3,False,None,T04,r1,2021-05-01_16h35.03.234,subsecond_timing_v2,2021.1.2,Win32,60.90133983
space,0.71541,space,1.113105,,,ms_small,0,43,43,43,1,0.741,0.2,False,None,T04,r1,2021-05-01_16h35.03.234,subsecond_timing_v2,2021.1.2,Win32,60.90133983
space,0.879345,space,1.04661,,,ms_small,0,44,44,44,1,0.67,0.3,False,None,T04,r1,2021-05-01_16h35.03.234,subsecond_timing_v2,2021.1.2,Win32,60.90133983
space,0.78737,space,1.211215,,,ms_small,0,45,45,45,1,0.812,0.2,False,None,T04,r1,2021-05-01_16h35.03.234,subsecond_timing_v2,2021.1.2,Win32,60.90133983
space,0.798065,space,1.14538,,,ms_small,0,46,46,46,1,1.024,0.3,False,None,T04,r1,2021-05-01_16h35.03.234,subsecond_timing_v2,2021.1.2,Win32,60.90133983
space,0.672025,space,1.07066,,,ms_small,0,47,47,47,1,0.706,0.3,False,None,T04,r1,2021-05-01_16h35.03.234,subsecond_timing_v2,2021.1.2,Win32,60.90133983
space,0.75469,space,1.06339,,,ms_small,0,48,48,48,1,0.988,0.2,False,None,T04,r1,2021-05-01_16h35.03.234,subsecond_timing_v2,2021.1.2,Win32,60.90133983
space,0.60105,space,1.077825,,,ms_small,0,49,49,49,1,0.776,0.1,False,None,T04,r1,2021-05-01_16h35.03.234,subsecond_timing_v2,2021.1.2,Win32,60.90133983
space,0.61952,space,1.045945,,,ms_small,0,50,50,50,1,0.988,0.1,False,None,T04,r1,2021-05-01_16h35.03.234,subsecond_timing_v2,2021.1.2,Win32,60.90133983
space,0.590455,space,1.161595,,,ms_small,0,51,51,51,1,0.706,0.3,False,None,T04,r1,2021-05-01_16h35.03.234,subsecond_timing_v2,2021.1.2,Win32,60.90133983
space,0.72989,space,1.13568,,,ms_small,0,52,52,52,1,0.953,0.2,False,None,T04,r1,2021-05-01_16h35.03.234,subsecond_timing_v2,2021.1.2,Win32,60.90133983
space,0.804905,space,1.31184,,,ms_small,0,53,53,53,1,0.847,0.2,False,None,T04,r1,2021-05-01_16h35.03.234,subsecond_timing_v2,2021.1.2,Win32,60.90133983
space,0.7012,space,1.72657,,,ms_small,0,54,54,54,1,0.918,0.3,False,None,T04,r1,2021-05-01_16h35.03.234,subsecond_timing_v2,2021.1.2,Win32,60.90133983
space,0.63779,space,0.96345,,,ms_small,0,55,55,55,1,0.741,0.1,False,None,T04,r1,2021-05-01_16h35.03.234,subsecond_timing_v2,2021.1.2,Win32,60.90133983
space,0.6314,space,0.5809,,,ms_small,0,56,56,56,1,0.67,0.1,False,None,T04,r1,2021-05-01_16h35.03.234,subsecond_timing_v2,2021.1.2,Win32,60.90133983
space,0.698955,space,0.65351,,,ms_small,0,57,57,57,1,0.776,0.2,False,None,T04,r1,2021-05-01_16h35.03.234,subsecond_timing_v2,2021.1.2,Win32,60.90133983
space,0.751015,space,0.98091,,,ms_small,0,58,58,58,1,0.882,0.1,False,None,T04,r1,2021-05-01_16h35.03.234,subsecond_timing_v2,2021.1.2,Win32,60.90133983
space,0.585815,space,0.57144,,,ms_small,0,59,59,59,1,0.812,0.2,False,None,T04,r1,2021-05-01_16h35.03.234,subsecond_timing_v2,2021.1.2,Win32,60.90133983
space,0.59009,space,0.93842,,,ms_small,0,60,60,60,1,1.024,0.2,False,None,T04,r1,2021-05-01_16h35.03.234,subsecond_timing_v2,2021.1.2,Win32,60.90133983
space,0.686755,space,0.830375,,,ms_small,0,61,61,61,1,0.847,0.3,False,None,T04,r1,2021-05-01_16h35.03.234,subsecond_timing_v2,2021.1.2,Win32,60.90133983
space,0.58249,space,0.614015,,,ms_small,0,62,62,62,1,0.67,0.1,False,None,T04,r1,2021-05-01_16h35.03.234,subsecond_timing_v2,2021.1.2,Win32,60.90133983
space,0.606865,space,0.83582,,,ms_small,0,63,63,63,1,0.988,0.3,False,None,T04,r1,2021-05-01_16h35.03.234,subsecond_timing_v2,2021.1.2,Win32,60.90133983
space,0.766105,space,1.015585,,,ms_small,0,64,64,64,1,0.812,0.1,False,None,T04,r1,2021-05-01_16h35.03.234,subsecond_timing_v2,2021.1.2,Win32,60.90133983
space,0.801825,space,0.949545,,,ms_small,0,65,65,65,1,0.882,0.3,False,None,T04,r1,2021-05-01_16h35.03.234,subsecond_timing_v2,2021.1.2,Win32,60.90133983
space,0.63368,space,0.997355,,,ms_small,0,66,66,66,1,0.918,0.1,False,None,T04,r1,2021-05-01_16h35.03.234,subsecond_timing_v2,2021.1.2,Win32,60.90133983
space,0.745775,space,1.004545,,,ms_small,0,67,67,67,1,1.024,0.1,False,None,T04,r1,2021-05-01_16h35.03.234,subsecond_timing_v2,2021.1.2,Win32,60.90133983
space,0.716085,space,1.59889,,,ms_small,0,68,68,68,1,0.776,0.2,False,None,T04,r1,2021-05-01_16h35.03.234,subsecond_timing_v2,2021.1.2,Win32,60.90133983
space,0.651875,space,1.128645,,,ms_small,0,69,69,69,1,0.953,0.1,False,None,T04,r1,2021-05-01_16h35.03.234,subsecond_timing_v2,2021.1.2,Win32,60.90133983
space,0.518805,space,0.46878,,,ms_small,0,70,70,70,1,0.706,0.1,False,None,T04,r1,2021-05-01_16h35.03.234,subsecond_timing_v2,2021.1.2,Win32,60.90133983
space,0.61684,space,0.795545,,,ms_small,0,71,71,71,1,0.741,0.3,False,None,T04,r1,2021-05-01_16h35.03.234,subsecond_timing_v2,2021.1.2,Win32,60.90133983
space,0.32283,space,0.7835,,,ms_small,0,72,72,72,1,0.882,0.2,False,None,T04,r1,2021-05-01_16h35.03.234,subsecond_timing_v2,2021.1.2,Win32,60.90133983
space,0.66897,space,0.87148,,,ms_small,0,73,73,73,1,0.918,0.3,False,None,T04,r1,2021-05-01_16h35.03.234,subsecond_timing_v2,2021.1.2,Win32,60.90133983
space,0.7648,space,1.02043,,,ms_small,0,74,74,74,1,0.988,0.2,False,None,T04,r1,2021-05-01_16h35.03.234,subsecond_timing_v2,2021.1.2,Win32,60.90133983
space,0.634465,space,0.89755,,,ms_small,0,75,75,75,1,0.67,0.1,False,None,T04,r1,2021-05-01_16h35.03.234,subsecond_timing_v2,2021.1.2,Win32,60.90133983
space,0.542785,space,0.830445,,,ms_small,0,76,76,76,1,0.776,0.3,False,None,T04,r1,2021-05-01_16h35.03.234,subsecond_timing_v2,2021.1.2,Win32,60.90133983
space,0.55948,space,1.083355,,,ms_small,0,77,77,77,1,0.847,0.2,False,None,T04,r1,2021-05-01_16h35.03.234,subsecond_timing_v2,2021.1.2,Win32,60.90133983
space,0.68675,space,0.770375,,,ms_small,0,78,78,78,1,1.024,0.2,False,None,T04,r1,2021-05-01_16h35.03.234,subsecond_timing_v2,2021.1.2,Win32,60.90133983
space,0.49066,space,0.74726,,,ms_small,0,79,79,79,1,0.812,0.3,False,None,T04,r1,2021-05-01_16h35.03.234,subsecond_timing_v2,2021.1.2,Win32,60.90133983
space,0.811545,space,0.78602,,,ms_small,0,80,80,80,1,0.953,0.1,False,None,T04,r1,2021-05-01_16h35.03.234,subsecond_timing_v2,2021.1.2,Win32,60.90133983
space,0.70456,space,1.262935,,,ms_small,0,81,81,81,1,0.706,0.2,False,None,T04,r1,2021-05-01_16h35.03.234,subsecond_timing_v2,2021.1.2,Win32,60.90133983
space,0.60041,space,0.866365,,,ms_small,0,82,82,82,1,0.741,0.3,False,None,T04,r1,2021-05-01_16h35.03.234,subsecond_timing_v2,2021.1.2,Win32,60.90133983
space,0.66296,space,0.752045,,,ms_small,0,83,83,83,1,0.706,0.1,False,None,T04,r1,2021-05-01_16h35.03.234,subsecond_timing_v2,2021.1.2,Win32,60.90133983
space,0.64208,space,1.16245,,,ms_small,0,84,84,84,1,0.812,0.2,False,None,T04,r1,2021-05-01_16h35.03.234,subsecond_timing_v2,2021.1.2,Win32,60.90133983
space,0.58361,space,1.265505,,,ms_small,0,85,85,85,1,0.882,0.2,False,None,T04,r1,2021-05-01_16h35.03.234,subsecond_timing_v2,2021.1.2,Win32,60.90133983
space,0.89645,space,0.99732,,,ms_small,0,86,86,86,1,0.776,0.1,False,None,T04,r1,2021-05-01_16h35.03.234,subsecond_timing_v2,2021.1.2,Win32,60.90133983
space,0.629055,space,1.00355,,,ms_small,0,87,87,87,1,0.988,0.3,False,None,T04,r1,2021-05-01_16h35.03.234,subsecond_timing_v2,2021.1.2,Win32,60.90133983
space,0.9881,space,0.60204,,,ms_small,0,88,88,88,1,0.67,0.2,False,None,T04,r1,2021-05-01_16h35.03.234,subsecond_timing_v2,2021.1.2,Win32,60.90133983
space,0.571,space,0.531335,,,ms_small,0,89,89,89,1,0.741,0.3,False,None,T04,r1,2021-05-01_16h35.03.234,subsecond_timing_v2,2021.1.2,Win32,60.90133983
space,0.799755,space,0.88461,,,ms_small,0,90,90,90,1,0.918,0.1,False,None,T04,r1,2021-05-01_16h35.03.234,subsecond_timing_v2,2021.1.2,Win32,60.90133983
space,0.521575,space,0.88062,,,ms_small,0,91,91,91,1,0.847,0.3,False,None,T04,r1,2021-05-01_16h35.03.234,subsecond_timing_v2,2021.1.2,Win32,60.90133983
space,0.56663,space,0.98315,,,ms_small,0,92,92,92,1,0.953,0.2,False,None,T04,r1,2021-05-01_16h35.03.234,subsecond_timing_v2,2021.1.2,Win32,60.90133983
space,0.59537,space,1.049835,,,ms_small,0,93,93,93,1,1.024,0.2,False,None,T04,r1,2021-05-01_16h35.03.234,subsecond_timing_v2,2021.1.2,Win32,60.90133983
space,0.621125,space,1.168725,,,ms_small,0,94,94,94,1,0.882,0.1,False,None,T04,r1,2021-05-01_16h35.03.234,subsecond_timing_v2,2021.1.2,Win32,60.90133983
space,0.61675,space,0.7605,,,ms_small,0,95,95,95,1,0.67,0.2,False,None,T04,r1,2021-05-01_16h35.03.234,subsecond_timing_v2,2021.1.2,Win32,60.90133983
space,0.734365,space,0.866715,,,ms_small,0,96,96,96,1,0.918,0.3,False,None,T04,r1,2021-05-01_16h35.03.234,subsecond_timing_v2,2021.1.2,Win32,60.90133983
space,1.023355,space,0.63054,,,ms_small,0,97,97,97,1,0.706,0.2,False,None,T04,r1,2021-05-01_16h35.03.234,subsecond_timing_v2,2021.1.2,Win32,60.90133983
space,0.96908,space,1.13878,,,ms_small,0,98,98,98,1,0.988,0.1,False,None,T04,r1,2021-05-01_16h35.03.234,subsecond_timing_v2,2021.1.2,Win32,60.90133983
space,0.582315,space,1.1458,,,ms_small,0,99,99,99,1,0.741,0.3,False,None,T04,r1,2021-05-01_16h35.03.234,subsecond_timing_v2,2021.1.2,Win32,60.90133983
space,0.524765,space,0.847205,,,ms_small,0,100,100,100,1,1.024,0.2,False,None,T04,r1,2021-05-01_16h35.03.234,subsecond_timing_v2,2021.1.2,Win32,60.90133983
space,0.601095,space,0.73149,,,ms_small,0,101,101,101,1,0.776,0.2,False,None,T04,r1,2021-05-01_16h35.03.234,subsecond_timing_v2,2021.1.2,Win32,60.90133983
space,0.635445,space,0.697955,,,ms_small,0,102,102,102,1,0.812,0.2,False,None,T04,r1,2021-05-01_16h35.03.234,subsecond_timing_v2,2021.1.2,Win32,60.90133983
space,0.79951,space,0.97328,,,ms_small,0,103,103,103,1,0.953,0.2,False,None,T04,r1,2021-05-01_16h35.03.234,subsecond_timing_v2,2021.1.2,Win32,60.90133983
space,0.64209,space,1.037945,,,ms_small,0,104,104,104,1,0.847,0.1,False,None,T04,r1,2021-05-01_16h35.03.234,subsecond_timing_v2,2021.1.2,Win32,60.90133983
space,0.681605,space,0.96787,,,ms_small,0,105,105,105,1,0.706,0.2,False,None,T04,r1,2021-05-01_16h35.03.234,subsecond_timing_v2,2021.1.2,Win32,60.90133983
space,0.768475,space,0.96361,,,ms_small,0,106,106,106,1,0.741,0.1,False,None,T04,r1,2021-05-01_16h35.03.234,subsecond_timing_v2,2021.1.2,Win32,60.90133983
space,0.488075,space,0.727775,,,ms_small,0,107,107,107,1,0.67,0.1,False,None,T04,r1,2021-05-01_16h35.03.234,subsecond_timing_v2,2021.1.2,Win32,60.90133983
space,0.617275,space,0.59281,,,ms_small,0,108,108,108,1,0.847,0.1,False,None,T04,r1,2021-05-01_16h35.03.234,subsecond_timing_v2,2021.1.2,Win32,60.90133983
space,0.779515,space,0.510225,,,ms_small,0,109,109,109,1,0.812,0.2,False,None,T04,r1,2021-05-01_16h35.03.234,subsecond_timing_v2,2021.1.2,Win32,60.90133983
space,0.583425,space,0.926035,,,ms_small,0,110,110,110,1,0.776,0.3,False,None,T04,r1,2021-05-01_16h35.03.234,subsecond_timing_v2,2021.1.2,Win32,60.90133983
space,0.81962,space,0.79791,,,ms_small,0,111,111,111,1,0.988,0.3,False,None,T04,r1,2021-05-01_16h35.03.234,subsecond_timing_v2,2021.1.2,Win32,60.90133983
space,0.718905,space,0.84944,,,ms_small,0,112,112,112,1,0.918,0.1,False,None,T04,r1,2021-05-01_16h35.03.234,subsecond_timing_v2,2021.1.2,Win32,60.90133983
space,0.546245,space,1.09746,,,ms_small,0,113,113,113,1,0.882,0.1,False,None,T04,r1,2021-05-01_16h35.03.234,subsecond_timing_v2,2021.1.2,Win32,60.90133983
space,0.846165,space,1.10708,,,ms_small,0,114,114,114,1,1.024,0.2,False,None,T04,r1,2021-05-01_16h35.03.234,subsecond_timing_v2,2021.1.2,Win32,60.90133983
space,0.523135,space,0.94204,,,ms_small,0,115,115,115,1,0.953,0.2,False,None,T04,r1,2021-05-01_16h35.03.234,subsecond_timing_v2,2021.1.2,Win32,60.90133983
space,0.63793,space,0.87523,,,ms_small,0,116,116,116,1,0.847,0.3,False,None,T04,r1,2021-05-01_16h35.03.234,subsecond_timing_v2,2021.1.2,Win32,60.90133983
space,0.701605,space,1.01415,,,ms_small,0,117,117,117,1,0.882,0.2,False,None,T04,r1,2021-05-01_16h35.03.234,subsecond_timing_v2,2021.1.2,Win32,60.90133983
space,0.49299,space,0.887755,,,ms_small,0,118,118,118,1,1.024,0.1,False,None,T04,r1,2021-05-01_16h35.03.234,subsecond_timing_v2,2021.1.2,Win32,60.90133983
space,0.56471,space,1.083745,,,ms_small,0,119,119,119,1,0.706,0.2,False,None,T04,r1,2021-05-01_16h35.03.234,subsecond_timing_v2,2021.1.2,Win32,60.90133983
space,0.67839,space,0.78193,,,ms_small,0,120,120,120,1,0.918,0.1,False,None,T04,r1,2021-05-01_16h35.03.234,subsecond_timing_v2,2021.1.2,Win32,60.90133983
space,0.67224,space,0.99745,,,ms_small,0,121,121,121,1,0.776,0.1,False,None,T04,r1,2021-05-01_16h35.03.234,subsecond_timing_v2,2021.1.2,Win32,60.90133983
space,0.68811,space,1.26895,,,ms_small,0,122,122,122,1,0.953,0.3,False,None,T04,r1,2021-05-01_16h35.03.234,subsecond_timing_v2,2021.1.2,Win32,60.90133983
space,0.500575,space,0.70391,,,ms_small,0,123,123,123,1,0.67,0.1,False,None,T04,r1,2021-05-01_16h35.03.234,subsecond_timing_v2,2021.1.2,Win32,60.90133983
space,0.55503,space,0.819685,,,ms_small,0,124,124,124,1,0.812,0.2,False,None,T04,r1,2021-05-01_16h35.03.234,subsecond_timing_v2,2021.1.2,Win32,60.90133983
space,0.759165,space,1.049145,,,ms_small,0,125,125,125,1,0.988,0.2,False,None,T04,r1,2021-05-01_16h35.03.234,subsecond_timing_v2,2021.1.2,Win32,60.90133983
space,0.78261,space,0.938515,,,ms_small,0,126,126,126,1,0.741,0.3,False,None,T04,r1,2021-05-01_16h35.03.234,subsecond_timing_v2,2021.1.2,Win32,60.90133983
space,0.563095,space,0.869365,,,ms_small,0,127,127,127,1,0.67,0.1,False,None,T04,r1,2021-05-01_16h35.03.234,subsecond_timing_v2,2021.1.2,Win32,60.90133983
space,0.579245,space,0.698935,,,ms_small,0,128,128,128,1,0.776,0.3,False,None,T04,r1,2021-05-01_16h35.03.234,subsecond_timing_v2,2021.1.2,Win32,60.90133983
space,0.63485,space,0.86408,,,ms_small,0,129,129,129,1,0.847,0.1,False,None,T04,r1,2021-05-01_16h35.03.234,subsecond_timing_v2,2021.1.2,Win32,60.90133983
space,0.754315,space,1.04768,,,ms_small,0,130,130,130,1,0.812,0.1,False,None,T04,r1,2021-05-01_16h35.03.234,subsecond_timing_v2,2021.1.2,Win32,60.90133983
space,0.665165,space,0.855375,,,ms_small,0,131,131,131,1,0.882,0.1,False,None,T04,r1,2021-05-01_16h35.03.234,subsecond_timing_v2,2021.1.2,Win32,60.90133983
space,0.797825,space,1.298385,,,ms_small,0,132,132,132,1,1.024,0.2,False,None,T04,r1,2021-05-01_16h35.03.234,subsecond_timing_v2,2021.1.2,Win32,60.90133983
space,0.67917,space,1.07448,,,ms_small,0,133,133,133,1,0.953,0.3,False,None,T04,r1,2021-05-01_16h35.03.234,subsecond_timing_v2,2021.1.2,Win32,60.90133983
space,0.69793,space,0.784715,,,ms_small,0,134,134,134,1,0.988,0.2,False,None,T04,r1,2021-05-01_16h35.03.234,subsecond_timing_v2,2021.1.2,Win32,60.90133983
space,0.79529,space,0.67098,,,ms_small,0,135,135,135,1,0.706,0.1,False,None,T04,r1,2021-05-01_16h35.03.234,subsecond_timing_v2,2021.1.2,Win32,60.90133983
space,0.814085,space,0.98655,,,ms_small,0,136,136,136,1,0.918,0.1,False,None,T04,r1,2021-05-01_16h35.03.234,subsecond_timing_v2,2021.1.2,Win32,60.90133983
space,0.72557,space,0.635325,,,ms_small,0,137,137,137,1,0.741,0.1,False,None,T04,r1,2021-05-01_16h35.03.234,subsecond_timing_v2,2021.1.2,Win32,60.90133983
space,0.75028,space,0.81548,,,ms_small,0,138,138,138,1,0.741,0.3,False,None,T04,r1,2021-05-01_16h35.03.234,subsecond_timing_v2,2021.1.2,Win32,60.90133983
space,0.74819,space,1.301705,,,ms_small,0,139,139,139,1,0.988,0.2,False,None,T04,r1,2021-05-01_16h35.03.234,subsecond_timing_v2,2021.1.2,Win32,60.90133983
space,0.700995,space,0.73736,,,ms_small,0,140,140,140,1,0.812,0.3,False,None,T04,r1,2021-05-01_16h35.03.234,subsecond_timing_v2,2021.1.2,Win32,60.90133983
space,0.847265,space,1.018385,,,ms_small,0,141,141,141,1,0.918,0.2,False,None,T04,r1,2021-05-01_16h35.03.234,subsecond_timing_v2,2021.1.2,Win32,60.90133983
space,0.712245,space,0.916165,,,ms_small,0,142,142,142,1,0.847,0.2,False,None,T04,r1,2021-05-01_16h35.03.234,subsecond_timing_v2,2021.1.2,Win32,60.90133983
space,0.631345,space,0.632985,,,ms_small,0,143,143,143,1,0.953,0.1,False,None,T04,r1,2021-05-01_16h35.03.234,subsecond_timing_v2,2021.1.2,Win32,60.90133983
space,0.678795,space,0.853135,,,ms_small,0,144,144,144,1,0.776,0.3,False,None,T04,r1,2021-05-01_16h35.03.234,subsecond_timing_v2,2021.1.2,Win32,60.90133983
space,0.58807,space,0.906675,,,ms_small,0,145,145,145,1,0.706,0.3,False,None,T04,r1,2021-05-01_16h35.03.234,subsecond_timing_v2,2021.1.2,Win32,60.90133983
space,0.674615,space,0.89593,,,ms_small,0,146,146,146,1,1.024,0.1,False,None,T04,r1,2021-05-01_16h35.03.234,subsecond_timing_v2,2021.1.2,Win32,60.90133983
space,0.668475,space,0.90213,,,ms_small,0,147,147,147,1,0.882,0.2,False,None,T04,r1,2021-05-01_16h35.03.234,subsecond_timing_v2,2021.1.2,Win32,60.90133983
space,0.59153,space,0.867765,,,ms_small,0,148,148,148,1,0.67,0.3,False,None,T04,r1,2021-05-01_16h35.03.234,subsecond_timing_v2,2021.1.2,Win32,60.90133983
space,0.520185,space,0.755445,,,ms_small,0,149,149,149,1,0.67,0.3,False,None,T04,r1,2021-05-01_16h35.03.234,subsecond_timing_v2,2021.1.2,Win32,60.90133983
space,0.728905,space,0.76458,,,ms_small,0,150,150,150,1,0.741,0.3,False,None,T04,r1,2021-05-01_16h35.03.234,subsecond_timing_v2,2021.1.2,Win32,60.90133983
space,0.66963,space,0.790565,,,ms_small,0,151,151,151,1,0.918,0.1,False,None,T04,r1,2021-05-01_16h35.03.234,subsecond_timing_v2,2021.1.2,Win32,60.90133983
space,0.569525,space,0.930945,,,ms_small,0,152,152,152,1,0.706,0.3,False,None,T04,r1,2021-05-01_16h35.03.234,subsecond_timing_v2,2021.1.2,Win32,60.90133983
space,0.6792,space,1.02932,,,ms_small,0,153,153,153,1,0.988,0.2,False,None,T04,r1,2021-05-01_16h35.03.234,subsecond_timing_v2,2021.1.2,Win32,60.90133983
space,0.50246,space,0.93456,,,ms_small,0,154,154,154,1,0.847,0.2,False,None,T04,r1,2021-05-01_16h35.03.234,subsecond_timing_v2,2021.1.2,Win32,60.90133983
space,0.47385,space,0.824005,,,ms_small,0,155,155,155,1,0.776,0.3,False,None,T04,r1,2021-05-01_16h35.03.234,subsecond_timing_v2,2021.1.2,Win32,60.90133983
space,0.76903,space,0.81845,,,ms_small,0,156,156,156,1,0.882,0.2,False,None,T04,r1,2021-05-01_16h35.03.234,subsecond_timing_v2,2021.1.2,Win32,60.90133983
space,0.691775,space,0.884275,,,ms_small,0,157,157,157,1,0.812,0.1,False,None,T04,r1,2021-05-01_16h35.03.234,subsecond_timing_v2,2021.1.2,Win32,60.90133983
space,0.614195,space,0.929155,,,ms_small,0,158,158,158,1,1.024,0.1,False,None,T04,r1,2021-05-01_16h35.03.234,subsecond_timing_v2,2021.1.2,Win32,60.90133983
space,0.75965,space,1.046155,,,ms_small,0,159,159,159,1,0.953,0.2,False,None,T04,r1,2021-05-01_16h35.03.234,subsecond_timing_v2,2021.1.2,Win32,60.90133983
space,1.36112,space,1.096125,,,ms_small,0,160,160,160,1,0.812,0.2,False,None,T04,r1,2021-05-01_16h35.03.234,subsecond_timing_v2,2021.1.2,Win32,60.90133983
space,0.635035,space,0.715315,,,ms_small,0,161,161,161,1,0.67,0.1,False,None,T04,r1,2021-05-01_16h35.03.234,subsecond_timing_v2,2021.1.2,Win32,60.90133983
space,0.53705,space,0.606525,,,ms_small,0,162,162,162,1,0.953,0.1,False,None,T04,r1,2021-05-01_16h35.03.234,subsecond_timing_v2,2021.1.2,Win32,60.90133983
space,0.629305,space,0.945295,,,ms_small,0,163,163,163,1,0.882,0.3,False,None,T04,r1,2021-05-01_16h35.03.234,subsecond_timing_v2,2021.1.2,Win32,60.90133983
space,0.723615,space,0.976735,,,ms_small,0,164,164,164,1,0.988,0.1,False,None,T04,r1,2021-05-01_16h35.03.234,subsecond_timing_v2,2021.1.2,Win32,60.90133983
space,0.72845,space,1.11645,,,ms_small,0,165,165,165,1,0.706,0.1,False,None,T04,r1,2021-05-01_16h35.03.234,subsecond_timing_v2,2021.1.2,Win32,60.90133983
space,0.600825,space,1.09457,,,ms_small,0,166,166,166,1,1.024,0.3,False,None,T04,r1,2021-05-01_16h35.03.234,subsecond_timing_v2,2021.1.2,Win32,60.90133983
space,0.795195,space,1.1955,,,ms_small,0,167,167,167,1,0.847,0.3,False,None,T04,r1,2021-05-01_16h35.03.234,subsecond_timing_v2,2021.1.2,Win32,60.90133983
space,0.74584,space,0.89601,,,ms_small,0,168,168,168,1,0.741,0.3,False,None,T04,r1,2021-05-01_16h35.03.234,subsecond_timing_v2,2021.1.2,Win32,60.90133983
space,0.637565,space,0.984975,,,ms_small,0,169,169,169,1,0.918,0.2,False,None,T04,r1,2021-05-01_16h35.03.234,subsecond_timing_v2,2021.1.2,Win32,60.90133983
space,0.67893,space,1.096185,,,ms_small,0,170,170,170,1,0.776,0.1,False,None,T04,r1,2021-05-01_16h35.03.234,subsecond_timing_v2,2021.1.2,Win32,60.90133983
space,0.53537,space,1.076595,,,ms_small,0,171,171,171,1,0.882,0.3,False,None,T04,r1,2021-05-01_16h35.03.234,subsecond_timing_v2,2021.1.2,Win32,60.90133983
space,0.6691,space,1.123755,,,ms_small,0,172,172,172,1,0.741,0.1,False,None,T04,r1,2021-05-01_16h35.03.234,subsecond_timing_v2,2021.1.2,Win32,60.90133983
space,1.016755,space,1.22761,,,ms_small,0,173,173,173,1,0.988,0.1,False,None,T04,r1,2021-05-01_16h35.03.234,subsecond_timing_v2,2021.1.2,Win32,60.90133983
space,0.63194,space,0.739385,,,ms_small,0,174,174,174,1,0.706,0.2,False,None,T04,r1,2021-05-01_16h35.03.234,subsecond_timing_v2,2021.1.2,Win32,60.90133983
space,0.872345,space,1.09336,,,ms_small,0,175,175,175,1,0.918,0.2,False,None,T04,r1,2021-05-01_16h35.03.234,subsecond_timing_v2,2021.1.2,Win32,60.90133983
space,0.708015,space,0.967385,,,ms_small,0,176,176,176,1,0.953,0.2,False,None,T04,r1,2021-05-01_16h35.03.234,subsecond_timing_v2,2021.1.2,Win32,60.90133983
space,0.670015,space,0.78694,,,ms_small,0,177,177,177,1,0.67,0.2,False,None,T04,r1,2021-05-01_16h35.03.234,subsecond_timing_v2,2021.1.2,Win32,60.90133983
space,0.52623,space,1.02978,,,ms_small,0,178,178,178,1,0.847,0.3,False,None,T04,r1,2021-05-01_16h35.03.234,subsecond_timing_v2,2021.1.2,Win32,60.90133983
space,0.676515,space,0.83052,,,ms_small,0,179,179,179,1,0.776,0.1,False,None,T04,r1,2021-05-01_16h35.03.234,subsecond_timing_v2,2021.1.2,Win32,60.90133983
space,0.698265,space,1.013595,,,ms_small,0,180,180,180,1,0.812,0.1,False,None,T04,r1,2021-05-01_16h35.03.234,subsecond_timing_v2,2021.1.2,Win32,60.90133983
space,0.71275,space,1.01731,,,ms_small,0,181,181,181,1,1.024,0.2,False,None,T04,r1,2021-05-01_16h35.03.234,subsecond_timing_v2,2021.1.2,Win32,60.90133983
space,0.78171,space,0.9024,,,ms_small,0,182,182,182,1,0.706,0.3,False,None,T04,r1,2021-05-01_16h35.03.234,subsecond_timing_v2,2021.1.2,Win32,60.90133983
space,0.925735,space,1.17929,,,ms_small,0,183,183,183,1,0.988,0.1,False,None,T04,r1,2021-05-01_16h35.03.234,subsecond_timing_v2,2021.1.2,Win32,60.90133983
space,0.745125,space,1.27091,,,ms_small,0,184,184,184,1,1.024,0.3,False,None,T04,r1,2021-05-01_16h35.03.234,subsecond_timing_v2,2021.1.2,Win32,60.90133983
space,0.65595,space,1.26804,,,ms_small,0,185,185,185,1,0.847,0.1,False,None,T04,r1,2021-05-01_16h35.03.234,subsecond_timing_v2,2021.1.2,Win32,60.90133983
space,0.55858,space,0.79545,,,ms_small,0,186,186,186,1,0.741,0.1,False,None,T04,r1,2021-05-01_16h35.03.234,subsecond_timing_v2,2021.1.2,Win32,60.90133983
space,0.590785,space,1.03016,,,ms_small,0,187,187,187,1,0.776,0.3,False,None,T04,r1,2021-05-01_16h35.03.234,subsecond_timing_v2,2021.1.2,Win32,60.90133983
space,0.620005,space,1.19665,,,ms_small,0,188,188,188,1,0.812,0.3,False,None,T04,r1,2021-05-01_16h35.03.234,subsecond_timing_v2,2021.1.2,Win32,60.90133983
space,0.587555,space,1.26213,,,ms_small,0,189,189,189,1,0.918,0.3,False,None,T04,r1,2021-05-01_16h35.03.234,subsecond_timing_v2,2021.1.2,Win32,60.90133983
space,0.550955,space,0.599305,,,ms_small,0,190,190,190,1,0.67,0.1,False,None,T04,r1,2021-05-01_16h35.03.234,subsecond_timing_v2,2021.1.2,Win32,60.90133983
space,0.75121,space,0.599175,,,ms_small,0,191,191,191,1,0.882,0.2,False,None,T04,r1,2021-05-01_16h35.03.234,subsecond_timing_v2,2021.1.2,Win32,60.90133983
space,0.553505,space,0.81396,,,ms_small,0,192,192,192,1,0.953,0.1,False,None,T04,r1,2021-05-01_16h35.03.234,subsecond_timing_v2,2021.1.2,Win32,60.90133983
space,0.554775,space,0.52791,,,ms_small,0,193,193,193,1,0.776,0.1,False,None,T04,r1,2021-05-01_16h35.03.234,subsecond_timing_v2,2021.1.2,Win32,60.90133983
space,0.65513,space,0.73142,,,ms_small,0,194,194,194,1,0.988,0.3,False,None,T04,r1,2021-05-01_16h35.03.234,subsecond_timing_v2,2021.1.2,Win32,60.90133983
space,0.66828,space,0.981575,,,ms_small,0,195,195,195,1,0.953,0.1,False,None,T04,r1,2021-05-01_16h35.03.234,subsecond_timing_v2,2021.1.2,Win32,60.90133983
space,0.750705,space,0.79704,,,ms_small,0,196,196,196,1,0.741,0.3,False,None,T04,r1,2021-05-01_16h35.03.234,subsecond_timing_v2,2021.1.2,Win32,60.90133983
space,1.29533,space,0.913025,,,ms_small,0,197,197,197,1,0.67,0.3,False,None,T04,r1,2021-05-01_16h35.03.234,subsecond_timing_v2,2021.1.2,Win32,60.90133983
space,0.77076,space,1.23383,,,ms_small,0,198,198,198,1,0.847,0.3,False,None,T04,r1,2021-05-01_16h35.03.234,subsecond_timing_v2,2021.1.2,Win32,60.90133983
space,0.590955,space,0.90159,,,ms_small,0,199,199,199,1,0.882,0.2,False,None,T04,r1,2021-05-01_16h35.03.234,subsecond_timing_v2,2021.1.2,Win32,60.90133983
space,0.63458,space,1.01285,,,ms_small,0,200,200,200,1,0.706,0.3,False,None,T04,r1,2021-05-01_16h35.03.234,subsecond_timing_v2,2021.1.2,Win32,60.90133983
space,0.601155,space,0.66629,,,ms_small,0,201,201,201,1,0.812,0.1,False,None,T04,r1,2021-05-01_16h35.03.234,subsecond_timing_v2,2021.1.2,Win32,60.90133983
space,0.33621,space,1.01262,,,ms_small,0,202,202,202,1,1.024,0.2,False,None,T04,r1,2021-05-01_16h35.03.234,subsecond_timing_v2,2021.1.2,Win32,60.90133983
space,0.41673,space,1.04008,,,ms_small,0,203,203,203,1,0.918,0.1,False,None,T04,r1,2021-05-01_16h35.03.234,subsecond_timing_v2,2021.1.2,Win32,60.90133983
space,0.42039,space,0.86867,,,ms_small,0,204,204,204,1,0.776,0.2,False,None,T04,r1,2021-05-01_16h35.03.234,subsecond_timing_v2,2021.1.2,Win32,60.90133983
space,0.67549,space,0.944945,,,ms_small,0,205,205,205,1,0.67,0.1,False,None,T04,r1,2021-05-01_16h35.03.234,subsecond_timing_v2,2021.1.2,Win32,60.90133983
space,0.51591,space,0.698535,,,ms_small,0,206,206,206,1,0.706,0.3,False,None,T04,r1,2021-05-01_16h35.03.234,subsecond_timing_v2,2021.1.2,Win32,60.90133983
space,0.391535,space,0.84693,,,ms_small,0,207,207,207,1,0.988,0.2,False,None,T04,r1,2021-05-01_16h35.03.234,subsecond_timing_v2,2021.1.2,Win32,60.90133983
space,0.736185,space,0.661805,,,ms_small,0,208,208,208,1,0.847,0.3,False,None,T04,r1,2021-05-01_16h35.03.234,subsecond_timing_v2,2021.1.2,Win32,60.90133983
space,0.68505,space,0.733,,,ms_small,0,209,209,209,1,0.953,0.2,False,None,T04,r1,2021-05-01_16h35.03.234,subsecond_timing_v2,2021.1.2,Win32,60.90133983
space,0.619415,space,1.03184,,,ms_small,0,210,210,210,1,0.812,0.1,False,None,T04,r1,2021-05-01_16h35.03.234,subsecond_timing_v2,2021.1.2,Win32,60.90133983
space,0.47056,space,1.13236,,,ms_small,0,211,211,211,1,0.918,0.1,False,None,T04,r1,2021-05-01_16h35.03.234,subsecond_timing_v2,2021.1.2,Win32,60.90133983
space,0.35475,space,0.70301,,,ms_small,0,212,212,212,1,0.741,0.3,False,None,T04,r1,2021-05-01_16h35.03.234,subsecond_timing_v2,2021.1.2,Win32,60.90133983
space,0.70056,space,0.64833,,,ms_small,0,213,213,213,1,0.882,0.3,False,None,T04,r1,2021-05-01_16h35.03.234,subsecond_timing_v2,2021.1.2,Win32,60.90133983
space,0.7184,space,0.550195,,,ms_small,0,214,214,214,1,1.024,0.1,False,None,T04,r1,2021-05-01_16h35.03.234,subsecond_timing_v2,2021.1.2,Win32,60.90133983
space,0.81704,space,0.797565,,,ms_small,0,215,215,215,1,1.024,0.2,False,None,T04,r1,2021-05-01_16h35.03.234,subsecond_timing_v2,2021.1.2,Win32,60.90133983
space,0.73259,space,0.70652,,,ms_small,0,216,216,216,1,0.706,0.2,False,None,T04,r1,2021-05-01_16h35.03.234,subsecond_timing_v2,2021.1.2,Win32,60.90133983
space,0.76858,space,0.934845,,,ms_small,0,217,217,217,1,0.882,0.1,False,None,T04,r1,2021-05-01_16h35.03.234,subsecond_timing_v2,2021.1.2,Win32,60.90133983
space,0.63483,space,0.479555,,,ms_small,0,218,218,218,1,0.776,0.2,False,None,T04,r1,2021-05-01_16h35.03.234,subsecond_timing_v2,2021.1.2,Win32,60.90133983
space,0.77644,space,0.98782,,,ms_small,0,219,219,219,1,0.847,0.2,False,None,T04,r1,2021-05-01_16h35.03.234,subsecond_timing_v2,2021.1.2,Win32,60.90133983
space,0.63886,space,0.88089,,,ms_small,0,220,220,220,1,0.812,0.1,False,None,T04,r1,2021-05-01_16h35.03.234,subsecond_timing_v2,2021.1.2,Win32,60.90133983
space,0.850275,space,0.950805,,,ms_small,0,221,221,221,1,0.988,0.1,False,None,T04,r1,2021-05-01_16h35.03.234,subsecond_timing_v2,2021.1.2,Win32,60.90133983
space,0.65949,space,0.89863,,,ms_small,0,222,222,222,1,0.918,0.1,False,None,T04,r1,2021-05-01_16h35.03.234,subsecond_timing_v2,2021.1.2,Win32,60.90133983
space,0.68835,space,0.87148,,,ms_small,0,223,223,223,1,0.67,0.2,False,None,T04,r1,2021-05-01_16h35.03.234,subsecond_timing_v2,2021.1.2,Win32,60.90133983
space,0.78548,space,0.631035,,,ms_small,0,224,224,224,1,0.741,0.3,False,None,T04,r1,2021-05-01_16h35.03.234,subsecond_timing_v2,2021.1.2,Win32,60.90133983
space,0.768415,space,0.8558,,,ms_small,0,225,225,225,1,0.953,0.1,False,None,T04,r1,2021-05-01_16h35.03.234,subsecond_timing_v2,2021.1.2,Win32,60.90133983
