key_resp_start.keys,key_resp_start.rt,key_resp_stop.keys,key_resp_stop.rt,feedback_range,hit,stimulus_range,trials.thisRepN,trials.thisTrialN,trials.thisN,trials.thisIndex,trials.ran,stimulus_duration,onset,feedback,feedback_range_fromfile,participant,session,date,expName,psychopyVersion,OS,frameRate
space,2.17247,space,0.961995,0.3,TRUE,Training,0,0,0,0,1,1,0.2,True,0.3,T04,r2,2021-04-25_11h54.23.241,subsecond_timing_v2,2021.1.2,Win32,60.24822268
space,1.128235,space,0.56414,0.3,TRUE,Training,0,1,1,1,1,0.75,0.2,True,0.3,T04,r2,2021-04-25_11h54.23.241,subsecond_timing_v2,2021.1.2,Win32,60.24822268
space,0.845775,space,0.14979,0.3,FALSE,Training,0,2,2,2,1,0.5,0.2,True,0.3,T04,r2,2021-04-25_11h54.23.241,subsecond_timing_v2,2021.1.2,Win32,60.24822268
space,0.846235,space,0.531055,0.3,TRUE,Training,0,3,3,3,1,0.5,0.3,True,0.3,T04,r2,2021-04-25_11h54.23.241,subsecond_timing_v2,2021.1.2,Win32,60.24822268
space,0.597485,space,0.630695,0.3,TRUE,Training,0,4,4,4,1,0.75,0.3,True,0.3,T04,r2,2021-04-25_11h54.23.241,subsecond_timing_v2,2021.1.2,Win32,60.24822268
space,0.763385,space,0.76338,0.3,TRUE,Training,0,5,5,5,1,1,0.3,True,0.3,T04,r2,2021-04-25_11h54.23.241,subsecond_timing_v2,2021.1.2,Win32,60.24822268
space,0.547815,space,1.2203,,,ms_large,0,6,6,6,1,1.165,0.2,False,None,T04,r2,2021-04-25_11h54.23.241,subsecond_timing_v2,2021.1.2,Win32,60.24822268
space,0.86278,space,0.763625,,,ms_large,0,7,7,7,1,1.094,0.3,False,None,T04,r2,2021-04-25_11h54.23.241,subsecond_timing_v2,2021.1.2,Win32,60.24822268
space,0.62351,space,0.84646,,,ms_large,0,8,8,8,1,1.2,0.3,False,None,T04,r2,2021-04-25_11h54.23.241,subsecond_timing_v2,2021.1.2,Win32,60.24822268
space,0.70236,space,0.8109,,,ms_large,0,9,9,9,1,1.024,0.1,False,None,T04,r2,2021-04-25_11h54.23.241,subsecond_timing_v2,2021.1.2,Win32,60.24822268
space,0.68046,space,0.879325,,,ms_large,0,10,10,10,1,0.953,0.3,False,None,T04,r2,2021-04-25_11h54.23.241,subsecond_timing_v2,2021.1.2,Win32,60.24822268
space,0.71172,space,0.8794,,,ms_large,0,11,11,11,1,0.847,0.1,False,None,T04,r2,2021-04-25_11h54.23.241,subsecond_timing_v2,2021.1.2,Win32,60.24822268
space,0.65479,space,0.680655,,,ms_large,0,12,12,12,1,0.882,0.3,False,None,T04,r2,2021-04-25_11h54.23.241,subsecond_timing_v2,2021.1.2,Win32,60.24822268
space,0.56447,space,0.80274,,,ms_large,0,13,13,13,1,1.129,0.1,False,None,T04,r2,2021-04-25_11h54.23.241,subsecond_timing_v2,2021.1.2,Win32,60.24822268
space,0.588115,space,1.02841,,,ms_large,0,14,14,14,1,1.059,0.3,False,None,T04,r2,2021-04-25_11h54.23.241,subsecond_timing_v2,2021.1.2,Win32,60.24822268
space,0.597715,space,0.92917,,,ms_large,0,15,15,15,1,0.918,0.3,False,None,T04,r2,2021-04-25_11h54.23.241,subsecond_timing_v2,2021.1.2,Win32,60.24822268
space,0.590015,space,0.846315,,,ms_large,0,16,16,16,1,0.988,0.1,False,None,T04,r2,2021-04-25_11h54.23.241,subsecond_timing_v2,2021.1.2,Win32,60.24822268
space,0.6693,space,0.928965,,,ms_large,0,17,17,17,1,0.953,0.2,False,None,T04,r2,2021-04-25_11h54.23.241,subsecond_timing_v2,2021.1.2,Win32,60.24822268
space,0.645215,space,0.897415,,,ms_large,0,18,18,18,1,1.129,0.3,False,None,T04,r2,2021-04-25_11h54.23.241,subsecond_timing_v2,2021.1.2,Win32,60.24822268
space,0.70895,space,0.868265,,,ms_large,0,19,19,19,1,0.988,0.2,False,None,T04,r2,2021-04-25_11h54.23.241,subsecond_timing_v2,2021.1.2,Win32,60.24822268
space,0.75588,space,0.895855,,,ms_large,0,20,20,20,1,1.024,0.1,False,None,T04,r2,2021-04-25_11h54.23.241,subsecond_timing_v2,2021.1.2,Win32,60.24822268
space,0.650125,space,0.87965,,,ms_large,0,21,21,21,1,1.165,0.1,False,None,T04,r2,2021-04-25_11h54.23.241,subsecond_timing_v2,2021.1.2,Win32,60.24822268
space,0.631015,space,1.0035,,,ms_large,0,22,22,22,1,1.2,0.1,False,None,T04,r2,2021-04-25_11h54.23.241,subsecond_timing_v2,2021.1.2,Win32,60.24822268
space,0.70131,space,0.68962,,,ms_large,0,23,23,23,1,0.882,0.2,False,None,T04,r2,2021-04-25_11h54.23.241,subsecond_timing_v2,2021.1.2,Win32,60.24822268
space,0.66183,space,0.81249,,,ms_large,0,24,24,24,1,0.847,0.3,False,None,T04,r2,2021-04-25_11h54.23.241,subsecond_timing_v2,2021.1.2,Win32,60.24822268
space,0.55595,space,0.758915,,,ms_large,0,25,25,25,1,1.094,0.1,False,None,T04,r2,2021-04-25_11h54.23.241,subsecond_timing_v2,2021.1.2,Win32,60.24822268
space,0.651215,space,0.929345,,,ms_large,0,26,26,26,1,1.059,0.1,False,None,T04,r2,2021-04-25_11h54.23.241,subsecond_timing_v2,2021.1.2,Win32,60.24822268
space,0.59885,space,0.835205,,,ms_large,0,27,27,27,1,0.918,0.3,False,None,T04,r2,2021-04-25_11h54.23.241,subsecond_timing_v2,2021.1.2,Win32,60.24822268
space,0.69959,space,0.68109,,,ms_large,0,28,28,28,1,0.988,0.2,False,None,T04,r2,2021-04-25_11h54.23.241,subsecond_timing_v2,2021.1.2,Win32,60.24822268
space,0.533065,space,0.875415,,,ms_large,0,29,29,29,1,1.165,0.2,False,None,T04,r2,2021-04-25_11h54.23.241,subsecond_timing_v2,2021.1.2,Win32,60.24822268
space,0.648735,space,0.802765,,,ms_large,0,30,30,30,1,1.129,0.1,False,None,T04,r2,2021-04-25_11h54.23.241,subsecond_timing_v2,2021.1.2,Win32,60.24822268
space,0.9493,space,0.75689,,,ms_large,0,31,31,31,1,1.059,0.1,False,None,T04,r2,2021-04-25_11h54.23.241,subsecond_timing_v2,2021.1.2,Win32,60.24822268
space,0.78014,space,0.82955,,,ms_large,0,32,32,32,1,0.918,0.3,False,None,T04,r2,2021-04-25_11h54.23.241,subsecond_timing_v2,2021.1.2,Win32,60.24822268
space,0.76686,space,0.85045,,,ms_large,0,33,33,33,1,1.2,0.3,False,None,T04,r2,2021-04-25_11h54.23.241,subsecond_timing_v2,2021.1.2,Win32,60.24822268
space,0.757215,space,0.656845,,,ms_large,0,34,34,34,1,0.847,0.1,False,None,T04,r2,2021-04-25_11h54.23.241,subsecond_timing_v2,2021.1.2,Win32,60.24822268
space,0.66052,space,1.130415,,,ms_large,0,35,35,35,1,1.024,0.1,False,None,T04,r2,2021-04-25_11h54.23.241,subsecond_timing_v2,2021.1.2,Win32,60.24822268
space,0.71054,space,0.945585,,,ms_large,0,36,36,36,1,0.882,0.1,False,None,T04,r2,2021-04-25_11h54.23.241,subsecond_timing_v2,2021.1.2,Win32,60.24822268
space,0.86273,space,0.847035,,,ms_large,0,37,37,37,1,1.094,0.2,False,None,T04,r2,2021-04-25_11h54.23.241,subsecond_timing_v2,2021.1.2,Win32,60.24822268
space,0.94236,space,0.80931,,,ms_large,0,38,38,38,1,0.953,0.1,False,None,T04,r2,2021-04-25_11h54.23.241,subsecond_timing_v2,2021.1.2,Win32,60.24822268
space,0.829655,space,0.957,,,ms_large,0,39,39,39,1,1.165,0.2,False,None,T04,r2,2021-04-25_11h54.23.241,subsecond_timing_v2,2021.1.2,Win32,60.24822268
space,0.70805,space,0.852335,,,ms_large,0,40,40,40,1,0.953,0.1,False,None,T04,r2,2021-04-25_11h54.23.241,subsecond_timing_v2,2021.1.2,Win32,60.24822268
space,0.82629,space,0.81545,,,ms_large,0,41,41,41,1,0.988,0.1,False,None,T04,r2,2021-04-25_11h54.23.241,subsecond_timing_v2,2021.1.2,Win32,60.24822268
space,0.605075,space,1.10745,,,ms_large,0,42,42,42,1,1.094,0.1,False,None,T04,r2,2021-04-25_11h54.23.241,subsecond_timing_v2,2021.1.2,Win32,60.24822268
space,0.643935,space,1.078135,,,ms_large,0,43,43,43,1,1.129,0.3,False,None,T04,r2,2021-04-25_11h54.23.241,subsecond_timing_v2,2021.1.2,Win32,60.24822268
space,0.8628,space,0.849855,,,ms_large,0,44,44,44,1,0.882,0.2,False,None,T04,r2,2021-04-25_11h54.23.241,subsecond_timing_v2,2021.1.2,Win32,60.24822268
space,0.89528,space,0.84604,,,ms_large,0,45,45,45,1,1.2,0.1,False,None,T04,r2,2021-04-25_11h54.23.241,subsecond_timing_v2,2021.1.2,Win32,60.24822268
space,0.789745,space,0.917125,,,ms_large,0,46,46,46,1,1.024,0.1,False,None,T04,r2,2021-04-25_11h54.23.241,subsecond_timing_v2,2021.1.2,Win32,60.24822268
space,0.813125,space,0.880195,,,ms_large,0,47,47,47,1,0.918,0.2,False,None,T04,r2,2021-04-25_11h54.23.241,subsecond_timing_v2,2021.1.2,Win32,60.24822268
space,0.680155,space,0.862565,,,ms_large,0,48,48,48,1,0.847,0.1,False,None,T04,r2,2021-04-25_11h54.23.241,subsecond_timing_v2,2021.1.2,Win32,60.24822268
space,0.764525,space,0.82181,,,ms_large,0,49,49,49,1,1.059,0.3,False,None,T04,r2,2021-04-25_11h54.23.241,subsecond_timing_v2,2021.1.2,Win32,60.24822268
space,0.82719,space,0.77049,,,ms_large,0,50,50,50,1,0.953,0.2,False,None,T04,r2,2021-04-25_11h54.23.241,subsecond_timing_v2,2021.1.2,Win32,60.24822268
space,1.60396,space,0.907765,,,ms_large,0,51,51,51,1,1.024,0.3,False,None,T04,r2,2021-04-25_11h54.23.241,subsecond_timing_v2,2021.1.2,Win32,60.24822268
space,1.033505,space,2.15567,,,ms_large,0,52,52,52,1,1.165,0.3,False,None,T04,r2,2021-04-25_11h54.23.241,subsecond_timing_v2,2021.1.2,Win32,60.24822268
space,0.82159,space,1.161955,,,ms_large,0,53,53,53,1,0.847,0.3,False,None,T04,r2,2021-04-25_11h54.23.241,subsecond_timing_v2,2021.1.2,Win32,60.24822268
space,0.634775,space,1.28172,,,ms_large,0,54,54,54,1,1.2,0.1,False,None,T04,r2,2021-04-25_11h54.23.241,subsecond_timing_v2,2021.1.2,Win32,60.24822268
space,0.683815,space,1.066555,,,ms_large,0,55,55,55,1,0.988,0.3,False,None,T04,r2,2021-04-25_11h54.23.241,subsecond_timing_v2,2021.1.2,Win32,60.24822268
space,0.780115,space,1.467745,,,ms_large,0,56,56,56,1,0.882,0.1,False,None,T04,r2,2021-04-25_11h54.23.241,subsecond_timing_v2,2021.1.2,Win32,60.24822268
space,0.780125,space,0.89206,,,ms_large,0,57,57,57,1,1.059,0.1,False,None,T04,r2,2021-04-25_11h54.23.241,subsecond_timing_v2,2021.1.2,Win32,60.24822268
space,0.766475,space,1.194805,,,ms_large,0,58,58,58,1,1.094,0.1,False,None,T04,r2,2021-04-25_11h54.23.241,subsecond_timing_v2,2021.1.2,Win32,60.24822268
space,0.849165,space,1.10319,,,ms_large,0,59,59,59,1,1.129,0.3,False,None,T04,r2,2021-04-25_11h54.23.241,subsecond_timing_v2,2021.1.2,Win32,60.24822268
space,0.790045,space,0.999165,,,ms_large,0,60,60,60,1,0.918,0.3,False,None,T04,r2,2021-04-25_11h54.23.241,subsecond_timing_v2,2021.1.2,Win32,60.24822268
space,0.75618,space,1.414815,,,ms_large,0,61,61,61,1,1.129,0.1,False,None,T04,r2,2021-04-25_11h54.23.241,subsecond_timing_v2,2021.1.2,Win32,60.24822268
space,0.879215,space,1.28016,,,ms_large,0,62,62,62,1,1.165,0.3,False,None,T04,r2,2021-04-25_11h54.23.241,subsecond_timing_v2,2021.1.2,Win32,60.24822268
space,0.62381,space,1.26832,,,ms_large,0,63,63,63,1,0.953,0.2,False,None,T04,r2,2021-04-25_11h54.23.241,subsecond_timing_v2,2021.1.2,Win32,60.24822268
space,0.64952,space,0.951725,,,ms_large,0,64,64,64,1,1.094,0.2,False,None,T04,r2,2021-04-25_11h54.23.241,subsecond_timing_v2,2021.1.2,Win32,60.24822268
space,0.647795,space,1.472195,,,ms_large,0,65,65,65,1,0.882,0.1,False,None,T04,r2,2021-04-25_11h54.23.241,subsecond_timing_v2,2021.1.2,Win32,60.24822268
space,0.79,space,0.917535,,,ms_large,0,66,66,66,1,0.918,0.2,False,None,T04,r2,2021-04-25_11h54.23.241,subsecond_timing_v2,2021.1.2,Win32,60.24822268
space,0.762585,space,0.995275,,,ms_large,0,67,67,67,1,0.988,0.1,False,None,T04,r2,2021-04-25_11h54.23.241,subsecond_timing_v2,2021.1.2,Win32,60.24822268
space,0.64367,space,1.361495,,,ms_large,0,68,68,68,1,1.024,0.1,False,None,T04,r2,2021-04-25_11h54.23.241,subsecond_timing_v2,2021.1.2,Win32,60.24822268
space,0.54324,space,0.965845,,,ms_large,0,69,69,69,1,1.2,0.1,False,None,T04,r2,2021-04-25_11h54.23.241,subsecond_timing_v2,2021.1.2,Win32,60.24822268
space,0.551725,space,1.442595,,,ms_large,0,70,70,70,1,1.059,0.1,False,None,T04,r2,2021-04-25_11h54.23.241,subsecond_timing_v2,2021.1.2,Win32,60.24822268
space,0.547785,space,0.84631,,,ms_large,0,71,71,71,1,0.847,0.1,False,None,T04,r2,2021-04-25_11h54.23.241,subsecond_timing_v2,2021.1.2,Win32,60.24822268
space,0.77665,space,0.935105,,,ms_large,0,72,72,72,1,1.094,0.2,False,None,T04,r2,2021-04-25_11h54.23.241,subsecond_timing_v2,2021.1.2,Win32,60.24822268
space,0.851245,space,1.067565,,,ms_large,0,73,73,73,1,0.918,0.3,False,None,T04,r2,2021-04-25_11h54.23.241,subsecond_timing_v2,2021.1.2,Win32,60.24822268
space,0.66775,space,1.409955,,,ms_large,0,74,74,74,1,0.953,0.2,False,None,T04,r2,2021-04-25_11h54.23.241,subsecond_timing_v2,2021.1.2,Win32,60.24822268
space,0.592505,space,1.22939,,,ms_large,0,75,75,75,1,0.882,0.2,False,None,T04,r2,2021-04-25_11h54.23.241,subsecond_timing_v2,2021.1.2,Win32,60.24822268
space,0.438155,space,1.300155,,,ms_large,0,76,76,76,1,0.988,0.3,False,None,T04,r2,2021-04-25_11h54.23.241,subsecond_timing_v2,2021.1.2,Win32,60.24822268
space,0.71629,space,1.21645,,,ms_large,0,77,77,77,1,1.2,0.1,False,None,T04,r2,2021-04-25_11h54.23.241,subsecond_timing_v2,2021.1.2,Win32,60.24822268
space,0.91377,space,0.97983,,,ms_large,0,78,78,78,1,1.024,0.2,False,None,T04,r2,2021-04-25_11h54.23.241,subsecond_timing_v2,2021.1.2,Win32,60.24822268
space,0.75401,space,1.343815,,,ms_large,0,79,79,79,1,1.129,0.1,False,None,T04,r2,2021-04-25_11h54.23.241,subsecond_timing_v2,2021.1.2,Win32,60.24822268
space,0.47217,space,1.60146,,,ms_large,0,80,80,80,1,1.165,0.3,False,None,T04,r2,2021-04-25_11h54.23.241,subsecond_timing_v2,2021.1.2,Win32,60.24822268
space,0.575225,space,1.037215,,,ms_large,0,81,81,81,1,1.059,0.2,False,None,T04,r2,2021-04-25_11h54.23.241,subsecond_timing_v2,2021.1.2,Win32,60.24822268
space,0.53788,space,0.9583,,,ms_large,0,82,82,82,1,0.847,0.1,False,None,T04,r2,2021-04-25_11h54.23.241,subsecond_timing_v2,2021.1.2,Win32,60.24822268
space,0.625565,space,0.696795,,,ms_large,0,83,83,83,1,1.024,0.1,False,None,T04,r2,2021-04-25_11h54.23.241,subsecond_timing_v2,2021.1.2,Win32,60.24822268
space,0.63912,space,0.737815,,,ms_large,0,84,84,84,1,1.059,0.3,False,None,T04,r2,2021-04-25_11h54.23.241,subsecond_timing_v2,2021.1.2,Win32,60.24822268
space,0.7187,space,1.061555,,,ms_large,0,85,85,85,1,0.918,0.1,False,None,T04,r2,2021-04-25_11h54.23.241,subsecond_timing_v2,2021.1.2,Win32,60.24822268
space,0.812795,space,1.06186,,,ms_large,0,86,86,86,1,1.165,0.1,False,None,T04,r2,2021-04-25_11h54.23.241,subsecond_timing_v2,2021.1.2,Win32,60.24822268
space,0.86296,space,0.92919,,,ms_large,0,87,87,87,1,0.953,0.1,False,None,T04,r2,2021-04-25_11h54.23.241,subsecond_timing_v2,2021.1.2,Win32,60.24822268
space,0.87026,space,0.80624,,,ms_large,0,88,88,88,1,0.882,0.1,False,None,T04,r2,2021-04-25_11h54.23.241,subsecond_timing_v2,2021.1.2,Win32,60.24822268
space,0.7636,space,0.907,,,ms_large,0,89,89,89,1,0.847,0.1,False,None,T04,r2,2021-04-25_11h54.23.241,subsecond_timing_v2,2021.1.2,Win32,60.24822268
space,0.795615,space,1.162805,,,ms_large,0,90,90,90,1,1.094,0.1,False,None,T04,r2,2021-04-25_11h54.23.241,subsecond_timing_v2,2021.1.2,Win32,60.24822268
space,0.8959,space,1.21773,,,ms_large,0,91,91,91,1,1.129,0.2,False,None,T04,r2,2021-04-25_11h54.23.241,subsecond_timing_v2,2021.1.2,Win32,60.24822268
space,0.796705,space,1.347585,,,ms_large,0,92,92,92,1,1.2,0.1,False,None,T04,r2,2021-04-25_11h54.23.241,subsecond_timing_v2,2021.1.2,Win32,60.24822268
space,0.83571,space,0.932745,,,ms_large,0,93,93,93,1,0.988,0.1,False,None,T04,r2,2021-04-25_11h54.23.241,subsecond_timing_v2,2021.1.2,Win32,60.24822268
space,0.81289,space,1.01396,,,ms_large,0,94,94,94,1,1.129,0.3,False,None,T04,r2,2021-04-25_11h54.23.241,subsecond_timing_v2,2021.1.2,Win32,60.24822268
space,0.531175,space,0.93713,,,ms_large,0,95,95,95,1,1.165,0.2,False,None,T04,r2,2021-04-25_11h54.23.241,subsecond_timing_v2,2021.1.2,Win32,60.24822268
space,0.220155,space,1.12803,,,ms_large,0,96,96,96,1,1.024,0.3,False,None,T04,r2,2021-04-25_11h54.23.241,subsecond_timing_v2,2021.1.2,Win32,60.24822268
space,0.8549,space,0.86252,,,ms_large,0,97,97,97,1,1.094,0.1,False,None,T04,r2,2021-04-25_11h54.23.241,subsecond_timing_v2,2021.1.2,Win32,60.24822268
space,0.873965,space,1.115125,,,ms_large,0,98,98,98,1,1.059,0.2,False,None,T04,r2,2021-04-25_11h54.23.241,subsecond_timing_v2,2021.1.2,Win32,60.24822268
space,0.95774,space,0.759975,,,ms_large,0,99,99,99,1,1.2,0.1,False,None,T04,r2,2021-04-25_11h54.23.241,subsecond_timing_v2,2021.1.2,Win32,60.24822268
space,0.70732,space,1.227215,,,ms_large,0,100,100,100,1,0.882,0.3,False,None,T04,r2,2021-04-25_11h54.23.241,subsecond_timing_v2,2021.1.2,Win32,60.24822268
space,0.879885,space,0.82992,,,ms_large,0,101,101,101,1,0.918,0.3,False,None,T04,r2,2021-04-25_11h54.23.241,subsecond_timing_v2,2021.1.2,Win32,60.24822268
space,0.860415,space,0.968615,,,ms_large,0,102,102,102,1,0.988,0.3,False,None,T04,r2,2021-04-25_11h54.23.241,subsecond_timing_v2,2021.1.2,Win32,60.24822268
space,0.68031,space,0.912195,,,ms_large,0,103,103,103,1,0.847,0.1,False,None,T04,r2,2021-04-25_11h54.23.241,subsecond_timing_v2,2021.1.2,Win32,60.24822268
space,0.73731,space,1.011505,,,ms_large,0,104,104,104,1,0.953,0.3,False,None,T04,r2,2021-04-25_11h54.23.241,subsecond_timing_v2,2021.1.2,Win32,60.24822268
space,0.886615,space,0.95593,,,ms_large,0,105,105,105,1,0.847,0.3,False,None,T04,r2,2021-04-25_11h54.23.241,subsecond_timing_v2,2021.1.2,Win32,60.24822268
space,0.784125,space,1.260795,,,ms_large,0,106,106,106,1,1.094,0.3,False,None,T04,r2,2021-04-25_11h54.23.241,subsecond_timing_v2,2021.1.2,Win32,60.24822268
space,0.73332,space,1.06244,,,ms_large,0,107,107,107,1,1.129,0.3,False,None,T04,r2,2021-04-25_11h54.23.241,subsecond_timing_v2,2021.1.2,Win32,60.24822268
space,0.685885,space,0.68318,,,ms_large,0,108,108,108,1,0.882,0.3,False,None,T04,r2,2021-04-25_11h54.23.241,subsecond_timing_v2,2021.1.2,Win32,60.24822268
space,0.591355,space,0.614055,,,ms_large,0,109,109,109,1,0.953,0.2,False,None,T04,r2,2021-04-25_11h54.23.241,subsecond_timing_v2,2021.1.2,Win32,60.24822268
space,0.710815,space,0.56478,,,ms_large,0,110,110,110,1,0.988,0.1,False,None,T04,r2,2021-04-25_11h54.23.241,subsecond_timing_v2,2021.1.2,Win32,60.24822268
space,0.55276,space,0.929145,,,ms_large,0,111,111,111,1,1.165,0.3,False,None,T04,r2,2021-04-25_11h54.23.241,subsecond_timing_v2,2021.1.2,Win32,60.24822268
space,0.668345,space,0.915405,,,ms_large,0,112,112,112,1,0.918,0.2,False,None,T04,r2,2021-04-25_11h54.23.241,subsecond_timing_v2,2021.1.2,Win32,60.24822268
space,0.60474,space,1.03624,,,ms_large,0,113,113,113,1,1.059,0.3,False,None,T04,r2,2021-04-25_11h54.23.241,subsecond_timing_v2,2021.1.2,Win32,60.24822268
space,0.64876,space,1.41002,,,ms_large,0,114,114,114,1,1.2,0.2,False,None,T04,r2,2021-04-25_11h54.23.241,subsecond_timing_v2,2021.1.2,Win32,60.24822268
space,1.140125,space,0.94579,,,ms_large,0,115,115,115,1,1.024,0.3,False,None,T04,r2,2021-04-25_11h54.23.241,subsecond_timing_v2,2021.1.2,Win32,60.24822268
space,0.902225,space,0.7134,,,ms_large,0,116,116,116,1,1.129,0.3,False,None,T04,r2,2021-04-25_11h54.23.241,subsecond_timing_v2,2021.1.2,Win32,60.24822268
space,0.86886,space,0.787295,,,ms_large,0,117,117,117,1,1.2,0.3,False,None,T04,r2,2021-04-25_11h54.23.241,subsecond_timing_v2,2021.1.2,Win32,60.24822268
space,0.846195,space,1.061725,,,ms_large,0,118,118,118,1,1.024,0.3,False,None,T04,r2,2021-04-25_11h54.23.241,subsecond_timing_v2,2021.1.2,Win32,60.24822268
space,0.627475,space,0.99541,,,ms_large,0,119,119,119,1,1.094,0.1,False,None,T04,r2,2021-04-25_11h54.23.241,subsecond_timing_v2,2021.1.2,Win32,60.24822268
space,0.590375,space,0.99569,,,ms_large,0,120,120,120,1,1.059,0.1,False,None,T04,r2,2021-04-25_11h54.23.241,subsecond_timing_v2,2021.1.2,Win32,60.24822268
space,0.915065,space,1.193655,,,ms_large,0,121,121,121,1,0.988,0.2,False,None,T04,r2,2021-04-25_11h54.23.241,subsecond_timing_v2,2021.1.2,Win32,60.24822268
space,0.974805,space,1.2853,,,ms_large,0,122,122,122,1,0.847,0.3,False,None,T04,r2,2021-04-25_11h54.23.241,subsecond_timing_v2,2021.1.2,Win32,60.24822268
space,0.858495,space,0.8464,,,ms_large,0,123,123,123,1,0.953,0.2,False,None,T04,r2,2021-04-25_11h54.23.241,subsecond_timing_v2,2021.1.2,Win32,60.24822268
space,0.898335,space,0.66434,,,ms_large,0,124,124,124,1,0.918,0.2,False,None,T04,r2,2021-04-25_11h54.23.241,subsecond_timing_v2,2021.1.2,Win32,60.24822268
space,0.621035,space,0.959155,,,ms_large,0,125,125,125,1,1.165,0.2,False,None,T04,r2,2021-04-25_11h54.23.241,subsecond_timing_v2,2021.1.2,Win32,60.24822268
space,0.647295,space,0.71527,,,ms_large,0,126,126,126,1,0.882,0.3,False,None,T04,r2,2021-04-25_11h54.23.241,subsecond_timing_v2,2021.1.2,Win32,60.24822268
space,0.561,space,0.75429,,,ms_large,0,127,127,127,1,0.882,0.2,False,None,T04,r2,2021-04-25_11h54.23.241,subsecond_timing_v2,2021.1.2,Win32,60.24822268
space,0.647745,space,0.730185,,,ms_large,0,128,128,128,1,1.094,0.2,False,None,T04,r2,2021-04-25_11h54.23.241,subsecond_timing_v2,2021.1.2,Win32,60.24822268
space,0.777865,space,0.796245,,,ms_large,0,129,129,129,1,1.024,0.3,False,None,T04,r2,2021-04-25_11h54.23.241,subsecond_timing_v2,2021.1.2,Win32,60.24822268
space,0.547375,space,0.49822,,,ms_large,0,130,130,130,1,0.847,0.1,False,None,T04,r2,2021-04-25_11h54.23.241,subsecond_timing_v2,2021.1.2,Win32,60.24822268
space,0.61097,space,0.862755,,,ms_large,0,131,131,131,1,1.2,0.1,False,None,T04,r2,2021-04-25_11h54.23.241,subsecond_timing_v2,2021.1.2,Win32,60.24822268
space,0.729985,space,1.161105,,,ms_large,0,132,132,132,1,1.059,0.3,False,None,T04,r2,2021-04-25_11h54.23.241,subsecond_timing_v2,2021.1.2,Win32,60.24822268
space,0.826825,space,0.846155,,,ms_large,0,133,133,133,1,0.918,0.1,False,None,T04,r2,2021-04-25_11h54.23.241,subsecond_timing_v2,2021.1.2,Win32,60.24822268
space,0.48161,space,0.98845,,,ms_large,0,134,134,134,1,1.129,0.3,False,None,T04,r2,2021-04-25_11h54.23.241,subsecond_timing_v2,2021.1.2,Win32,60.24822268
space,0.89598,space,1.188925,,,ms_large,0,135,135,135,1,1.165,0.2,False,None,T04,r2,2021-04-25_11h54.23.241,subsecond_timing_v2,2021.1.2,Win32,60.24822268
space,0.689685,space,1.322,,,ms_large,0,136,136,136,1,0.953,0.1,False,None,T04,r2,2021-04-25_11h54.23.241,subsecond_timing_v2,2021.1.2,Win32,60.24822268
space,0.846565,space,1.095415,,,ms_large,0,137,137,137,1,0.988,0.3,False,None,T04,r2,2021-04-25_11h54.23.241,subsecond_timing_v2,2021.1.2,Win32,60.24822268
space,0.5478,space,1.33972,,,ms_large,0,138,138,138,1,0.847,0.1,False,None,T04,r2,2021-04-25_11h54.23.241,subsecond_timing_v2,2021.1.2,Win32,60.24822268
space,0.84946,space,1.144595,,,ms_large,0,139,139,139,1,0.882,0.1,False,None,T04,r2,2021-04-25_11h54.23.241,subsecond_timing_v2,2021.1.2,Win32,60.24822268
space,0.63083,space,1.16736,,,ms_large,0,140,140,140,1,0.988,0.3,False,None,T04,r2,2021-04-25_11h54.23.241,subsecond_timing_v2,2021.1.2,Win32,60.24822268
space,0.634485,space,1.210605,,,ms_large,0,141,141,141,1,0.953,0.1,False,None,T04,r2,2021-04-25_11h54.23.241,subsecond_timing_v2,2021.1.2,Win32,60.24822268
space,0.402715,space,0.808945,,,ms_large,0,142,142,142,1,1.165,0.2,False,None,T04,r2,2021-04-25_11h54.23.241,subsecond_timing_v2,2021.1.2,Win32,60.24822268
space,0.82958,space,0.8852,,,ms_large,0,143,143,143,1,1.059,0.3,False,None,T04,r2,2021-04-25_11h54.23.241,subsecond_timing_v2,2021.1.2,Win32,60.24822268
space,0.48821,space,0.901355,,,ms_large,0,144,144,144,1,1.2,0.1,False,None,T04,r2,2021-04-25_11h54.23.241,subsecond_timing_v2,2021.1.2,Win32,60.24822268
space,0.648935,space,0.933695,,,ms_large,0,145,145,145,1,1.094,0.2,False,None,T04,r2,2021-04-25_11h54.23.241,subsecond_timing_v2,2021.1.2,Win32,60.24822268
space,0.696535,space,0.92965,,,ms_large,0,146,146,146,1,1.024,0.3,False,None,T04,r2,2021-04-25_11h54.23.241,subsecond_timing_v2,2021.1.2,Win32,60.24822268
space,0.555195,space,1.32724,,,ms_large,0,147,147,147,1,0.918,0.2,False,None,T04,r2,2021-04-25_11h54.23.241,subsecond_timing_v2,2021.1.2,Win32,60.24822268
space,0.730745,space,1.045295,,,ms_large,0,148,148,148,1,1.129,0.3,False,None,T04,r2,2021-04-25_11h54.23.241,subsecond_timing_v2,2021.1.2,Win32,60.24822268
space,0.65002,space,1.15835,,,ms_large,0,149,149,149,1,1.165,0.3,False,None,T04,r2,2021-04-25_11h54.23.241,subsecond_timing_v2,2021.1.2,Win32,60.24822268
space,0.66423,space,1.19496,,,ms_large,0,150,150,150,1,0.882,0.1,False,None,T04,r2,2021-04-25_11h54.23.241,subsecond_timing_v2,2021.1.2,Win32,60.24822268
space,0.6138,space,0.77976,,,ms_large,0,151,151,151,1,1.2,0.2,False,None,T04,r2,2021-04-25_11h54.23.241,subsecond_timing_v2,2021.1.2,Win32,60.24822268
space,0.76785,space,0.750275,,,ms_large,0,152,152,152,1,0.953,0.3,False,None,T04,r2,2021-04-25_11h54.23.241,subsecond_timing_v2,2021.1.2,Win32,60.24822268
space,0.602665,space,1.06847,,,ms_large,0,153,153,153,1,1.059,0.3,False,None,T04,r2,2021-04-25_11h54.23.241,subsecond_timing_v2,2021.1.2,Win32,60.24822268
space,0.7846,space,0.69039,,,ms_large,0,154,154,154,1,0.918,0.2,False,None,T04,r2,2021-04-25_11h54.23.241,subsecond_timing_v2,2021.1.2,Win32,60.24822268
space,0.736815,space,0.73302,,,ms_large,0,155,155,155,1,0.847,0.2,False,None,T04,r2,2021-04-25_11h54.23.241,subsecond_timing_v2,2021.1.2,Win32,60.24822268
space,0.62844,space,0.94824,,,ms_large,0,156,156,156,1,1.129,0.3,False,None,T04,r2,2021-04-25_11h54.23.241,subsecond_timing_v2,2021.1.2,Win32,60.24822268
space,0.99579,space,1.08108,,,ms_large,0,157,157,157,1,1.024,0.1,False,None,T04,r2,2021-04-25_11h54.23.241,subsecond_timing_v2,2021.1.2,Win32,60.24822268
space,0.68534,space,1.06435,,,ms_large,0,158,158,158,1,0.988,0.2,False,None,T04,r2,2021-04-25_11h54.23.241,subsecond_timing_v2,2021.1.2,Win32,60.24822268
space,0.64717,space,1.36768,,,ms_large,0,159,159,159,1,1.094,0.2,False,None,T04,r2,2021-04-25_11h54.23.241,subsecond_timing_v2,2021.1.2,Win32,60.24822268
space,0.88836,space,1.381115,,,ms_large,0,160,160,160,1,1.129,0.2,False,None,T04,r2,2021-04-25_11h54.23.241,subsecond_timing_v2,2021.1.2,Win32,60.24822268
space,0.837,space,1.359595,,,ms_large,0,161,161,161,1,0.953,0.2,False,None,T04,r2,2021-04-25_11h54.23.241,subsecond_timing_v2,2021.1.2,Win32,60.24822268
space,0.55622,space,1.04484,,,ms_large,0,162,162,162,1,0.847,0.3,False,None,T04,r2,2021-04-25_11h54.23.241,subsecond_timing_v2,2021.1.2,Win32,60.24822268
space,0.89675,space,1.40969,,,ms_large,0,163,163,163,1,0.988,0.1,False,None,T04,r2,2021-04-25_11h54.23.241,subsecond_timing_v2,2021.1.2,Win32,60.24822268
space,0.73029,space,1.276945,,,ms_large,0,164,164,164,1,0.882,0.1,False,None,T04,r2,2021-04-25_11h54.23.241,subsecond_timing_v2,2021.1.2,Win32,60.24822268
space,0.64763,space,1.266045,,,ms_large,0,165,165,165,1,1.094,0.1,False,None,T04,r2,2021-04-25_11h54.23.241,subsecond_timing_v2,2021.1.2,Win32,60.24822268
space,0.731025,space,0.820355,,,ms_large,0,166,166,166,1,0.918,0.2,False,None,T04,r2,2021-04-25_11h54.23.241,subsecond_timing_v2,2021.1.2,Win32,60.24822268
space,0.836105,space,1.079355,,,ms_large,0,167,167,167,1,1.024,0.3,False,None,T04,r2,2021-04-25_11h54.23.241,subsecond_timing_v2,2021.1.2,Win32,60.24822268
space,0.863015,space,0.86346,,,ms_large,0,168,168,168,1,1.059,0.1,False,None,T04,r2,2021-04-25_11h54.23.241,subsecond_timing_v2,2021.1.2,Win32,60.24822268
space,0.564565,space,1.012715,,,ms_large,0,169,169,169,1,1.2,0.3,False,None,T04,r2,2021-04-25_11h54.23.241,subsecond_timing_v2,2021.1.2,Win32,60.24822268
space,0.76553,space,1.16807,,,ms_large,0,170,170,170,1,1.165,0.3,False,None,T04,r2,2021-04-25_11h54.23.241,subsecond_timing_v2,2021.1.2,Win32,60.24822268
space,0.816815,space,1.122225,,,ms_large,0,171,171,171,1,1.094,0.1,False,None,T04,r2,2021-04-25_11h54.23.241,subsecond_timing_v2,2021.1.2,Win32,60.24822268
space,0.70695,space,1.070635,,,ms_large,0,172,172,172,1,1.024,0.1,False,None,T04,r2,2021-04-25_11h54.23.241,subsecond_timing_v2,2021.1.2,Win32,60.24822268
space,0.78294,space,0.8303,,,ms_large,0,173,173,173,1,0.988,0.2,False,None,T04,r2,2021-04-25_11h54.23.241,subsecond_timing_v2,2021.1.2,Win32,60.24822268
space,0.90417,space,0.924985,,,ms_large,0,174,174,174,1,1.165,0.3,False,None,T04,r2,2021-04-25_11h54.23.241,subsecond_timing_v2,2021.1.2,Win32,60.24822268
space,0.874255,space,1.161315,,,ms_large,0,175,175,175,1,0.847,0.1,False,None,T04,r2,2021-04-25_11h54.23.241,subsecond_timing_v2,2021.1.2,Win32,60.24822268
space,0.689035,space,1.08253,,,ms_large,0,176,176,176,1,1.2,0.1,False,None,T04,r2,2021-04-25_11h54.23.241,subsecond_timing_v2,2021.1.2,Win32,60.24822268
space,0.788645,space,0.721105,,,ms_large,0,177,177,177,1,0.882,0.1,False,None,T04,r2,2021-04-25_11h54.23.241,subsecond_timing_v2,2021.1.2,Win32,60.24822268
space,0.573685,space,0.969805,,,ms_large,0,178,178,178,1,1.129,0.1,False,None,T04,r2,2021-04-25_11h54.23.241,subsecond_timing_v2,2021.1.2,Win32,60.24822268
space,0.64298,space,0.65786,,,ms_large,0,179,179,179,1,0.953,0.1,False,None,T04,r2,2021-04-25_11h54.23.241,subsecond_timing_v2,2021.1.2,Win32,60.24822268
space,0.681035,space,0.717145,,,ms_large,0,180,180,180,1,0.918,0.3,False,None,T04,r2,2021-04-25_11h54.23.241,subsecond_timing_v2,2021.1.2,Win32,60.24822268
space,0.628435,space,0.64737,,,ms_large,0,181,181,181,1,1.059,0.2,False,None,T04,r2,2021-04-25_11h54.23.241,subsecond_timing_v2,2021.1.2,Win32,60.24822268
space,0.578175,space,0.912915,,,ms_large,0,182,182,182,1,1.165,0.1,False,None,T04,r2,2021-04-25_11h54.23.241,subsecond_timing_v2,2021.1.2,Win32,60.24822268
space,0.77961,space,1.09999,,,ms_large,0,183,183,183,1,1.024,0.3,False,None,T04,r2,2021-04-25_11h54.23.241,subsecond_timing_v2,2021.1.2,Win32,60.24822268
space,0.7314,space,0.78283,,,ms_large,0,184,184,184,1,1.2,0.2,False,None,T04,r2,2021-04-25_11h54.23.241,subsecond_timing_v2,2021.1.2,Win32,60.24822268
space,0.780085,space,0.979195,,,ms_large,0,185,185,185,1,0.882,0.3,False,None,T04,r2,2021-04-25_11h54.23.241,subsecond_timing_v2,2021.1.2,Win32,60.24822268
space,0.72461,space,1.81648,,,ms_large,0,186,186,186,1,1.129,0.3,False,None,T04,r2,2021-04-25_11h54.23.241,subsecond_timing_v2,2021.1.2,Win32,60.24822268
space,0.613675,space,1.13618,,,ms_large,0,187,187,187,1,0.953,0.1,False,None,T04,r2,2021-04-25_11h54.23.241,subsecond_timing_v2,2021.1.2,Win32,60.24822268
space,0.646985,space,0.91233,,,ms_large,0,188,188,188,1,0.988,0.1,False,None,T04,r2,2021-04-25_11h54.23.241,subsecond_timing_v2,2021.1.2,Win32,60.24822268
space,0.945815,space,1.069485,,,ms_large,0,189,189,189,1,0.918,0.3,False,None,T04,r2,2021-04-25_11h54.23.241,subsecond_timing_v2,2021.1.2,Win32,60.24822268
space,0.62401,space,0.96566,,,ms_large,0,190,190,190,1,1.059,0.2,False,None,T04,r2,2021-04-25_11h54.23.241,subsecond_timing_v2,2021.1.2,Win32,60.24822268
space,0.681375,space,0.81264,,,ms_large,0,191,191,191,1,0.847,0.3,False,None,T04,r2,2021-04-25_11h54.23.241,subsecond_timing_v2,2021.1.2,Win32,60.24822268
space,0.713675,space,0.784875,,,ms_large,0,192,192,192,1,1.094,0.3,False,None,T04,r2,2021-04-25_11h54.23.241,subsecond_timing_v2,2021.1.2,Win32,60.24822268
space,0.670215,space,0.61454,,,ms_large,0,193,193,193,1,0.847,0.1,False,None,T04,r2,2021-04-25_11h54.23.241,subsecond_timing_v2,2021.1.2,Win32,60.24822268
space,0.58397,space,0.936565,,,ms_large,0,194,194,194,1,1.2,0.2,False,None,T04,r2,2021-04-25_11h54.23.241,subsecond_timing_v2,2021.1.2,Win32,60.24822268
space,0.87049,space,0.85677,,,ms_large,0,195,195,195,1,0.918,0.3,False,None,T04,r2,2021-04-25_11h54.23.241,subsecond_timing_v2,2021.1.2,Win32,60.24822268
space,0.796885,space,1.06113,,,ms_large,0,196,196,196,1,1.024,0.2,False,None,T04,r2,2021-04-25_11h54.23.241,subsecond_timing_v2,2021.1.2,Win32,60.24822268
space,0.64482,space,0.962395,,,ms_large,0,197,197,197,1,1.094,0.1,False,None,T04,r2,2021-04-25_11h54.23.241,subsecond_timing_v2,2021.1.2,Win32,60.24822268
space,0.78886,space,0.81553,,,ms_large,0,198,198,198,1,0.953,0.1,False,None,T04,r2,2021-04-25_11h54.23.241,subsecond_timing_v2,2021.1.2,Win32,60.24822268
space,0.72772,space,1.26087,,,ms_large,0,199,199,199,1,1.129,0.3,False,None,T04,r2,2021-04-25_11h54.23.241,subsecond_timing_v2,2021.1.2,Win32,60.24822268
space,0.763065,space,0.769475,,,ms_large,0,200,200,200,1,0.988,0.1,False,None,T04,r2,2021-04-25_11h54.23.241,subsecond_timing_v2,2021.1.2,Win32,60.24822268
space,0.800745,space,0.813255,,,ms_large,0,201,201,201,1,0.882,0.3,False,None,T04,r2,2021-04-25_11h54.23.241,subsecond_timing_v2,2021.1.2,Win32,60.24822268
space,0.780405,space,1.047835,,,ms_large,0,202,202,202,1,1.059,0.3,False,None,T04,r2,2021-04-25_11h54.23.241,subsecond_timing_v2,2021.1.2,Win32,60.24822268
space,0.747105,space,1.070875,,,ms_large,0,203,203,203,1,1.165,0.2,False,None,T04,r2,2021-04-25_11h54.23.241,subsecond_timing_v2,2021.1.2,Win32,60.24822268
space,0.818395,space,0.995375,,,ms_large,0,204,204,204,1,0.953,0.2,False,None,T04,r2,2021-04-25_11h54.23.241,subsecond_timing_v2,2021.1.2,Win32,60.24822268
space,0.74829,space,1.055105,,,ms_large,0,205,205,205,1,1.094,0.3,False,None,T04,r2,2021-04-25_11h54.23.241,subsecond_timing_v2,2021.1.2,Win32,60.24822268
space,0.714105,space,1.011795,,,ms_large,0,206,206,206,1,1.2,0.2,False,None,T04,r2,2021-04-25_11h54.23.241,subsecond_timing_v2,2021.1.2,Win32,60.24822268
space,1.22758,space,0.70087,,,ms_large,0,207,207,207,1,1.024,0.1,False,None,T04,r2,2021-04-25_11h54.23.241,subsecond_timing_v2,2021.1.2,Win32,60.24822268
space,0.734825,space,0.962645,,,ms_large,0,208,208,208,1,0.847,0.3,False,None,T04,r2,2021-04-25_11h54.23.241,subsecond_timing_v2,2021.1.2,Win32,60.24822268
space,1.01204,space,1.244325,,,ms_large,0,209,209,209,1,1.129,0.2,False,None,T04,r2,2021-04-25_11h54.23.241,subsecond_timing_v2,2021.1.2,Win32,60.24822268
space,0.72053,space,1.16887,,,ms_large,0,210,210,210,1,1.165,0.3,False,None,T04,r2,2021-04-25_11h54.23.241,subsecond_timing_v2,2021.1.2,Win32,60.24822268
space,0.90778,space,1.128255,,,ms_large,0,211,211,211,1,0.988,0.3,False,None,T04,r2,2021-04-25_11h54.23.241,subsecond_timing_v2,2021.1.2,Win32,60.24822268
space,0.61754,space,1.032265,,,ms_large,0,212,212,212,1,0.882,0.3,False,None,T04,r2,2021-04-25_11h54.23.241,subsecond_timing_v2,2021.1.2,Win32,60.24822268
space,0.603795,space,1.128325,,,ms_large,0,213,213,213,1,1.059,0.2,False,None,T04,r2,2021-04-25_11h54.23.241,subsecond_timing_v2,2021.1.2,Win32,60.24822268
space,0.68056,space,0.995845,,,ms_large,0,214,214,214,1,0.918,0.3,False,None,T04,r2,2021-04-25_11h54.23.241,subsecond_timing_v2,2021.1.2,Win32,60.24822268
space,0.746065,space,1.12839,,,ms_large,0,215,215,215,1,0.953,0.2,False,None,T04,r2,2021-04-25_11h54.23.241,subsecond_timing_v2,2021.1.2,Win32,60.24822268
space,0.791325,space,1.0662,,,ms_large,0,216,216,216,1,0.847,0.3,False,None,T04,r2,2021-04-25_11h54.23.241,subsecond_timing_v2,2021.1.2,Win32,60.24822268
space,0.730485,space,1.12796,,,ms_large,0,217,217,217,1,1.024,0.1,False,None,T04,r2,2021-04-25_11h54.23.241,subsecond_timing_v2,2021.1.2,Win32,60.24822268
space,0.74674,space,1.21156,,,ms_large,0,218,218,218,1,1.059,0.3,False,None,T04,r2,2021-04-25_11h54.23.241,subsecond_timing_v2,2021.1.2,Win32,60.24822268
space,0.71337,space,1.17834,,,ms_large,0,219,219,219,1,0.988,0.1,False,None,T04,r2,2021-04-25_11h54.23.241,subsecond_timing_v2,2021.1.2,Win32,60.24822268
space,0.74033,space,1.37215,,,ms_large,0,220,220,220,1,1.094,0.1,False,None,T04,r2,2021-04-25_11h54.23.241,subsecond_timing_v2,2021.1.2,Win32,60.24822268
space,0.80513,space,0.85625,,,ms_large,0,221,221,221,1,0.918,0.3,False,None,T04,r2,2021-04-25_11h54.23.241,subsecond_timing_v2,2021.1.2,Win32,60.24822268
space,0.7106,space,0.902985,,,ms_large,0,222,222,222,1,0.882,0.1,False,None,T04,r2,2021-04-25_11h54.23.241,subsecond_timing_v2,2021.1.2,Win32,60.24822268
space,0.621905,space,1.28392,,,ms_large,0,223,223,223,1,1.129,0.2,False,None,T04,r2,2021-04-25_11h54.23.241,subsecond_timing_v2,2021.1.2,Win32,60.24822268
space,0.698025,space,0.90646,,,ms_large,0,224,224,224,1,1.165,0.3,False,None,T04,r2,2021-04-25_11h54.23.241,subsecond_timing_v2,2021.1.2,Win32,60.24822268
space,0.78044,space,1.078605,,,ms_large,0,225,225,225,1,1.2,0.3,False,None,T04,r2,2021-04-25_11h54.23.241,subsecond_timing_v2,2021.1.2,Win32,60.24822268
