key_resp_start.keys,key_resp_start.rt,key_resp_stop.keys,key_resp_stop.rt,feedback_range,hit,stimulus_range,trials.thisRepN,trials.thisTrialN,trials.thisN,trials.thisIndex,trials.ran,stimulus_duration,onset,feedback,feedback_range_fromfile,participant,session,date,expName,psychopyVersion,OS,frameRate
space,2.68118,space,0.35162,0.3,FALSE,Training,0,0,0,0,1,1,0.3,True,0.3,T07,r1,2021-04-24_23h35.04.442,subsecond_timing_v2,2021.1.2,Win32,59.76214666
space,0.837675,space,0.60045,0.3,TRUE,Training,0,1,1,1,1,0.75,0.1,True,0.3,T07,r1,2021-04-24_23h35.04.442,subsecond_timing_v2,2021.1.2,Win32,59.76214666
space,0.657905,space,0.401305,0.3,TRUE,Training,0,2,2,2,1,0.5,0.1,True,0.3,T07,r1,2021-04-24_23h35.04.442,subsecond_timing_v2,2021.1.2,Win32,59.76214666
space,0.53498,space,0.599175,0.3,TRUE,Training,0,3,3,3,1,0.5,0.2,True,0.3,T07,r1,2021-04-24_23h35.04.442,subsecond_timing_v2,2021.1.2,Win32,59.76214666
space,0.55193,space,0.517705,0.3,FALSE,Training,0,4,4,4,1,0.75,0.2,True,0.3,T07,r1,2021-04-24_23h35.04.442,subsecond_timing_v2,2021.1.2,Win32,59.76214666
space,0.45944,space,0.616445,0.3,FALSE,Training,0,5,5,5,1,1,0.3,True,0.3,T07,r1,2021-04-24_23h35.04.442,subsecond_timing_v2,2021.1.2,Win32,59.76214666
space,0.60624,space,0.775325,,,ms_small,0,6,6,6,1,0.706,0.2,False,None,T07,r1,2021-04-24_23h35.04.442,subsecond_timing_v2,2021.1.2,Win32,59.76214666
space,2.754985,space,0.486345,,,ms_small,0,7,7,7,1,0.812,0.3,False,None,T07,r1,2021-04-24_23h35.04.442,subsecond_timing_v2,2021.1.2,Win32,59.76214666
space,0.61779,space,0.506,,,ms_small,0,8,8,8,1,0.847,0.1,False,None,T07,r1,2021-04-24_23h35.04.442,subsecond_timing_v2,2021.1.2,Win32,59.76214666
space,0.493315,space,0.550425,,,ms_small,0,9,9,9,1,0.67,0.3,False,None,T07,r1,2021-04-24_23h35.04.442,subsecond_timing_v2,2021.1.2,Win32,59.76214666
space,0.521045,space,0.56939,,,ms_small,0,10,10,10,1,0.988,0.1,False,None,T07,r1,2021-04-24_23h35.04.442,subsecond_timing_v2,2021.1.2,Win32,59.76214666
space,0.747495,space,0.566795,,,ms_small,0,11,11,11,1,0.953,0.1,False,None,T07,r1,2021-04-24_23h35.04.442,subsecond_timing_v2,2021.1.2,Win32,59.76214666
space,0.550825,space,0.558115,,,ms_small,0,12,12,12,1,0.882,0.3,False,None,T07,r1,2021-04-24_23h35.04.442,subsecond_timing_v2,2021.1.2,Win32,59.76214666
space,0.740515,space,0.615835,,,ms_small,0,13,13,13,1,0.918,0.1,False,None,T07,r1,2021-04-24_23h35.04.442,subsecond_timing_v2,2021.1.2,Win32,59.76214666
space,0.511075,space,0.582245,,,ms_small,0,14,14,14,1,0.776,0.2,False,None,T07,r1,2021-04-24_23h35.04.442,subsecond_timing_v2,2021.1.2,Win32,59.76214666
space,0.716895,space,0.66967,,,ms_small,0,15,15,15,1,0.741,0.3,False,None,T07,r1,2021-04-24_23h35.04.442,subsecond_timing_v2,2021.1.2,Win32,59.76214666
space,0.68417,space,0.80603,,,ms_small,0,16,16,16,1,1.024,0.3,False,None,T07,r1,2021-04-24_23h35.04.442,subsecond_timing_v2,2021.1.2,Win32,59.76214666
space,0.46726,space,0.490515,,,ms_small,0,17,17,17,1,0.67,0.1,False,None,T07,r1,2021-04-24_23h35.04.442,subsecond_timing_v2,2021.1.2,Win32,59.76214666
space,0.492675,space,0.77121,,,ms_small,0,18,18,18,1,0.812,0.3,False,None,T07,r1,2021-04-24_23h35.04.442,subsecond_timing_v2,2021.1.2,Win32,59.76214666
space,0.590575,space,0.733845,,,ms_small,0,19,19,19,1,0.953,0.3,False,None,T07,r1,2021-04-24_23h35.04.442,subsecond_timing_v2,2021.1.2,Win32,59.76214666
space,0.606105,space,0.57454,,,ms_small,0,20,20,20,1,0.776,0.1,False,None,T07,r1,2021-04-24_23h35.04.442,subsecond_timing_v2,2021.1.2,Win32,59.76214666
space,0.499275,space,0.673585,,,ms_small,0,21,21,21,1,0.741,0.2,False,None,T07,r1,2021-04-24_23h35.04.442,subsecond_timing_v2,2021.1.2,Win32,59.76214666
space,0.572,space,0.754325,,,ms_small,0,22,22,22,1,0.847,0.2,False,None,T07,r1,2021-04-24_23h35.04.442,subsecond_timing_v2,2021.1.2,Win32,59.76214666
space,0.80677,space,0.81825,,,ms_small,0,23,23,23,1,1.024,0.1,False,None,T07,r1,2021-04-24_23h35.04.442,subsecond_timing_v2,2021.1.2,Win32,59.76214666
space,0.62407,space,0.60137,,,ms_small,0,24,24,24,1,0.882,0.3,False,None,T07,r1,2021-04-24_23h35.04.442,subsecond_timing_v2,2021.1.2,Win32,59.76214666
space,0.719135,space,0.74249,,,ms_small,0,25,25,25,1,0.988,0.1,False,None,T07,r1,2021-04-24_23h35.04.442,subsecond_timing_v2,2021.1.2,Win32,59.76214666
space,0.600475,space,0.639665,,,ms_small,0,26,26,26,1,0.706,0.2,False,None,T07,r1,2021-04-24_23h35.04.442,subsecond_timing_v2,2021.1.2,Win32,59.76214666
space,0.65347,space,0.609105,,,ms_small,0,27,27,27,1,0.918,0.3,False,None,T07,r1,2021-04-24_23h35.04.442,subsecond_timing_v2,2021.1.2,Win32,59.76214666
space,0.500745,space,0.48343,,,ms_small,0,28,28,28,1,0.706,0.1,False,None,T07,r1,2021-04-24_23h35.04.442,subsecond_timing_v2,2021.1.2,Win32,59.76214666
space,0.81644,space,0.738245,,,ms_small,0,29,29,29,1,0.918,0.1,False,None,T07,r1,2021-04-24_23h35.04.442,subsecond_timing_v2,2021.1.2,Win32,59.76214666
space,0.68084,space,0.51779,,,ms_small,0,30,30,30,1,0.67,0.2,False,None,T07,r1,2021-04-24_23h35.04.442,subsecond_timing_v2,2021.1.2,Win32,59.76214666
space,0.67302,space,0.668015,,,ms_small,0,31,31,31,1,0.988,0.1,False,None,T07,r1,2021-04-24_23h35.04.442,subsecond_timing_v2,2021.1.2,Win32,59.76214666
space,0.63593,space,0.687465,,,ms_small,0,32,32,32,1,0.953,0.2,False,None,T07,r1,2021-04-24_23h35.04.442,subsecond_timing_v2,2021.1.2,Win32,59.76214666
space,0.66275,space,0.686615,,,ms_small,0,33,33,33,1,0.776,0.1,False,None,T07,r1,2021-04-24_23h35.04.442,subsecond_timing_v2,2021.1.2,Win32,59.76214666
space,0.718505,space,0.674155,,,ms_small,0,34,34,34,1,0.847,0.1,False,None,T07,r1,2021-04-24_23h35.04.442,subsecond_timing_v2,2021.1.2,Win32,59.76214666
space,0.669265,space,0.77859,,,ms_small,0,35,35,35,1,0.741,0.2,False,None,T07,r1,2021-04-24_23h35.04.442,subsecond_timing_v2,2021.1.2,Win32,59.76214666
space,0.835745,space,0.764815,,,ms_small,0,36,36,36,1,0.812,0.1,False,None,T07,r1,2021-04-24_23h35.04.442,subsecond_timing_v2,2021.1.2,Win32,59.76214666
space,0.79998,space,0.78879,,,ms_small,0,37,37,37,1,0.882,0.1,False,None,T07,r1,2021-04-24_23h35.04.442,subsecond_timing_v2,2021.1.2,Win32,59.76214666
space,0.785215,space,0.74498,,,ms_small,0,38,38,38,1,1.024,0.3,False,None,T07,r1,2021-04-24_23h35.04.442,subsecond_timing_v2,2021.1.2,Win32,59.76214666
space,0.60152,space,0.6866,,,ms_small,0,39,39,39,1,0.847,0.2,False,None,T07,r1,2021-04-24_23h35.04.442,subsecond_timing_v2,2021.1.2,Win32,59.76214666
space,0.570435,space,0.77626,,,ms_small,0,40,40,40,1,0.918,0.2,False,None,T07,r1,2021-04-24_23h35.04.442,subsecond_timing_v2,2021.1.2,Win32,59.76214666
space,0.77404,space,0.733595,,,ms_small,0,41,41,41,1,0.953,0.1,False,None,T07,r1,2021-04-24_23h35.04.442,subsecond_timing_v2,2021.1.2,Win32,59.76214666
space,0.74701,space,0.619925,,,ms_small,0,42,42,42,1,0.882,0.3,False,None,T07,r1,2021-04-24_23h35.04.442,subsecond_timing_v2,2021.1.2,Win32,59.76214666
space,0.85674,space,0.724385,,,ms_small,0,43,43,43,1,0.741,0.2,False,None,T07,r1,2021-04-24_23h35.04.442,subsecond_timing_v2,2021.1.2,Win32,59.76214666
space,0.850175,space,0.60197,,,ms_small,0,44,44,44,1,0.67,0.3,False,None,T07,r1,2021-04-24_23h35.04.442,subsecond_timing_v2,2021.1.2,Win32,59.76214666
space,0.652435,space,0.781545,,,ms_small,0,45,45,45,1,0.812,0.2,False,None,T07,r1,2021-04-24_23h35.04.442,subsecond_timing_v2,2021.1.2,Win32,59.76214666
space,0.673265,space,0.734105,,,ms_small,0,46,46,46,1,1.024,0.3,False,None,T07,r1,2021-04-24_23h35.04.442,subsecond_timing_v2,2021.1.2,Win32,59.76214666
space,0.83564,space,0.69306,,,ms_small,0,47,47,47,1,0.706,0.3,False,None,T07,r1,2021-04-24_23h35.04.442,subsecond_timing_v2,2021.1.2,Win32,59.76214666
space,0.58836,space,0.62572,,,ms_small,0,48,48,48,1,0.988,0.2,False,None,T07,r1,2021-04-24_23h35.04.442,subsecond_timing_v2,2021.1.2,Win32,59.76214666
space,0.734575,space,0.75154,,,ms_small,0,49,49,49,1,0.776,0.1,False,None,T07,r1,2021-04-24_23h35.04.442,subsecond_timing_v2,2021.1.2,Win32,59.76214666
space,0.702365,space,0.70127,,,ms_small,0,50,50,50,1,0.988,0.1,False,None,T07,r1,2021-04-24_23h35.04.442,subsecond_timing_v2,2021.1.2,Win32,59.76214666
space,0.702125,space,0.752165,,,ms_small,0,51,51,51,1,0.706,0.3,False,None,T07,r1,2021-04-24_23h35.04.442,subsecond_timing_v2,2021.1.2,Win32,59.76214666
space,0.68557,space,0.718465,,,ms_small,0,52,52,52,1,0.953,0.2,False,None,T07,r1,2021-04-24_23h35.04.442,subsecond_timing_v2,2021.1.2,Win32,59.76214666
space,0.58619,space,0.851315,,,ms_small,0,53,53,53,1,0.847,0.2,False,None,T07,r1,2021-04-24_23h35.04.442,subsecond_timing_v2,2021.1.2,Win32,59.76214666
space,0.617325,space,0.823655,,,ms_small,0,54,54,54,1,0.918,0.3,False,None,T07,r1,2021-04-24_23h35.04.442,subsecond_timing_v2,2021.1.2,Win32,59.76214666
space,0.83458,space,0.674035,,,ms_small,0,55,55,55,1,0.741,0.1,False,None,T07,r1,2021-04-24_23h35.04.442,subsecond_timing_v2,2021.1.2,Win32,59.76214666
space,0.727915,space,0.64939,,,ms_small,0,56,56,56,1,0.67,0.1,False,None,T07,r1,2021-04-24_23h35.04.442,subsecond_timing_v2,2021.1.2,Win32,59.76214666
space,0.66746,space,0.81935,,,ms_small,0,57,57,57,1,0.776,0.2,False,None,T07,r1,2021-04-24_23h35.04.442,subsecond_timing_v2,2021.1.2,Win32,59.76214666
space,0.619015,space,0.85041,,,ms_small,0,58,58,58,1,0.882,0.1,False,None,T07,r1,2021-04-24_23h35.04.442,subsecond_timing_v2,2021.1.2,Win32,59.76214666
space,0.656035,space,0.717095,,,ms_small,0,59,59,59,1,0.812,0.2,False,None,T07,r1,2021-04-24_23h35.04.442,subsecond_timing_v2,2021.1.2,Win32,59.76214666
space,0.5394,space,0.71613,,,ms_small,0,60,60,60,1,1.024,0.2,False,None,T07,r1,2021-04-24_23h35.04.442,subsecond_timing_v2,2021.1.2,Win32,59.76214666
space,0.58829,space,0.81837,,,ms_small,0,61,61,61,1,0.847,0.3,False,None,T07,r1,2021-04-24_23h35.04.442,subsecond_timing_v2,2021.1.2,Win32,59.76214666
space,0.651055,space,0.56901,,,ms_small,0,62,62,62,1,0.67,0.1,False,None,T07,r1,2021-04-24_23h35.04.442,subsecond_timing_v2,2021.1.2,Win32,59.76214666
space,0.602445,space,0.88106,,,ms_small,0,63,63,63,1,0.988,0.3,False,None,T07,r1,2021-04-24_23h35.04.442,subsecond_timing_v2,2021.1.2,Win32,59.76214666
space,0.75368,space,0.86704,,,ms_small,0,64,64,64,1,0.812,0.1,False,None,T07,r1,2021-04-24_23h35.04.442,subsecond_timing_v2,2021.1.2,Win32,59.76214666
space,0.691905,space,0.748855,,,ms_small,0,65,65,65,1,0.882,0.3,False,None,T07,r1,2021-04-24_23h35.04.442,subsecond_timing_v2,2021.1.2,Win32,59.76214666
space,0.834095,space,0.61729,,,ms_small,0,66,66,66,1,0.918,0.1,False,None,T07,r1,2021-04-24_23h35.04.442,subsecond_timing_v2,2021.1.2,Win32,59.76214666
space,0.622425,space,0.807025,,,ms_small,0,67,67,67,1,1.024,0.1,False,None,T07,r1,2021-04-24_23h35.04.442,subsecond_timing_v2,2021.1.2,Win32,59.76214666
space,0.805175,space,0.65197,,,ms_small,0,68,68,68,1,0.776,0.2,False,None,T07,r1,2021-04-24_23h35.04.442,subsecond_timing_v2,2021.1.2,Win32,59.76214666
space,0.833385,space,0.55051,,,ms_small,0,69,69,69,1,0.953,0.1,False,None,T07,r1,2021-04-24_23h35.04.442,subsecond_timing_v2,2021.1.2,Win32,59.76214666
space,0.735155,space,0.29156,,,ms_small,0,70,70,70,1,0.706,0.1,False,None,T07,r1,2021-04-24_23h35.04.442,subsecond_timing_v2,2021.1.2,Win32,59.76214666
space,0.690805,space,0.624985,,,ms_small,0,71,71,71,1,0.741,0.3,False,None,T07,r1,2021-04-24_23h35.04.442,subsecond_timing_v2,2021.1.2,Win32,59.76214666
space,0.710405,space,0.60764,,,ms_small,0,72,72,72,1,0.882,0.2,False,None,T07,r1,2021-04-24_23h35.04.442,subsecond_timing_v2,2021.1.2,Win32,59.76214666
space,0.689605,space,0.687175,,,ms_small,0,73,73,73,1,0.918,0.3,False,None,T07,r1,2021-04-24_23h35.04.442,subsecond_timing_v2,2021.1.2,Win32,59.76214666
space,0.587195,space,1.00076,,,ms_small,0,74,74,74,1,0.988,0.2,False,None,T07,r1,2021-04-24_23h35.04.442,subsecond_timing_v2,2021.1.2,Win32,59.76214666
space,0.64898,space,0.56837,,,ms_small,0,75,75,75,1,0.67,0.1,False,None,T07,r1,2021-04-24_23h35.04.442,subsecond_timing_v2,2021.1.2,Win32,59.76214666
space,0.801705,space,0.72398,,,ms_small,0,76,76,76,1,0.776,0.3,False,None,T07,r1,2021-04-24_23h35.04.442,subsecond_timing_v2,2021.1.2,Win32,59.76214666
space,0.76552,space,0.850705,,,ms_small,0,77,77,77,1,0.847,0.2,False,None,T07,r1,2021-04-24_23h35.04.442,subsecond_timing_v2,2021.1.2,Win32,59.76214666
space,0.850055,space,0.8829,,,ms_small,0,78,78,78,1,1.024,0.2,False,None,T07,r1,2021-04-24_23h35.04.442,subsecond_timing_v2,2021.1.2,Win32,59.76214666
space,0.81654,space,0.63687,,,ms_small,0,79,79,79,1,0.812,0.3,False,None,T07,r1,2021-04-24_23h35.04.442,subsecond_timing_v2,2021.1.2,Win32,59.76214666
space,0.90388,space,0.933625,,,ms_small,0,80,80,80,1,0.953,0.1,False,None,T07,r1,2021-04-24_23h35.04.442,subsecond_timing_v2,2021.1.2,Win32,59.76214666
space,0.683095,space,0.56752,,,ms_small,0,81,81,81,1,0.706,0.2,False,None,T07,r1,2021-04-24_23h35.04.442,subsecond_timing_v2,2021.1.2,Win32,59.76214666
space,0.69279,space,0.64996,,,ms_small,0,82,82,82,1,0.741,0.3,False,None,T07,r1,2021-04-24_23h35.04.442,subsecond_timing_v2,2021.1.2,Win32,59.76214666
space,0.70574,space,0.619995,,,ms_small,0,83,83,83,1,0.706,0.1,False,None,T07,r1,2021-04-24_23h35.04.442,subsecond_timing_v2,2021.1.2,Win32,59.76214666
space,0.78726,space,0.601435,,,ms_small,0,84,84,84,1,0.812,0.2,False,None,T07,r1,2021-04-24_23h35.04.442,subsecond_timing_v2,2021.1.2,Win32,59.76214666
space,0.79996,space,0.783825,,,ms_small,0,85,85,85,1,0.882,0.2,False,None,T07,r1,2021-04-24_23h35.04.442,subsecond_timing_v2,2021.1.2,Win32,59.76214666
space,0.701315,space,0.615955,,,ms_small,0,86,86,86,1,0.776,0.1,False,None,T07,r1,2021-04-24_23h35.04.442,subsecond_timing_v2,2021.1.2,Win32,59.76214666
space,0.80877,space,0.73877,,,ms_small,0,87,87,87,1,0.988,0.3,False,None,T07,r1,2021-04-24_23h35.04.442,subsecond_timing_v2,2021.1.2,Win32,59.76214666
space,0.666985,space,0.78888,,,ms_small,0,88,88,88,1,0.67,0.2,False,None,T07,r1,2021-04-24_23h35.04.442,subsecond_timing_v2,2021.1.2,Win32,59.76214666
space,0.76714,space,0.81924,,,ms_small,0,89,89,89,1,0.741,0.3,False,None,T07,r1,2021-04-24_23h35.04.442,subsecond_timing_v2,2021.1.2,Win32,59.76214666
space,0.83946,space,0.675895,,,ms_small,0,90,90,90,1,0.918,0.1,False,None,T07,r1,2021-04-24_23h35.04.442,subsecond_timing_v2,2021.1.2,Win32,59.76214666
space,0.740585,space,0.61598,,,ms_small,0,91,91,91,1,0.847,0.3,False,None,T07,r1,2021-04-24_23h35.04.442,subsecond_timing_v2,2021.1.2,Win32,59.76214666
space,0.635405,space,0.900585,,,ms_small,0,92,92,92,1,0.953,0.2,False,None,T07,r1,2021-04-24_23h35.04.442,subsecond_timing_v2,2021.1.2,Win32,59.76214666
space,0.78336,space,0.95978,,,ms_small,0,93,93,93,1,1.024,0.2,False,None,T07,r1,2021-04-24_23h35.04.442,subsecond_timing_v2,2021.1.2,Win32,59.76214666
space,0.710175,space,0.88393,,,ms_small,0,94,94,94,1,0.882,0.1,False,None,T07,r1,2021-04-24_23h35.04.442,subsecond_timing_v2,2021.1.2,Win32,59.76214666
space,0.904965,space,0.770255,,,ms_small,0,95,95,95,1,0.67,0.2,False,None,T07,r1,2021-04-24_23h35.04.442,subsecond_timing_v2,2021.1.2,Win32,59.76214666
space,0.75066,space,1.00261,,,ms_small,0,96,96,96,1,0.918,0.3,False,None,T07,r1,2021-04-24_23h35.04.442,subsecond_timing_v2,2021.1.2,Win32,59.76214666
space,0.701825,space,0.73266,,,ms_small,0,97,97,97,1,0.706,0.2,False,None,T07,r1,2021-04-24_23h35.04.442,subsecond_timing_v2,2021.1.2,Win32,59.76214666
space,0.87955,space,0.879325,,,ms_small,0,98,98,98,1,0.988,0.1,False,None,T07,r1,2021-04-24_23h35.04.442,subsecond_timing_v2,2021.1.2,Win32,59.76214666
space,0.90758,space,0.80135,,,ms_small,0,99,99,99,1,0.741,0.3,False,None,T07,r1,2021-04-24_23h35.04.442,subsecond_timing_v2,2021.1.2,Win32,59.76214666
space,0.967545,space,1.001435,,,ms_small,0,100,100,100,1,1.024,0.2,False,None,T07,r1,2021-04-24_23h35.04.442,subsecond_timing_v2,2021.1.2,Win32,59.76214666
space,0.802595,space,0.69855,,,ms_small,0,101,101,101,1,0.776,0.2,False,None,T07,r1,2021-04-24_23h35.04.442,subsecond_timing_v2,2021.1.2,Win32,59.76214666
space,0.815105,space,0.65611,,,ms_small,0,102,102,102,1,0.812,0.2,False,None,T07,r1,2021-04-24_23h35.04.442,subsecond_timing_v2,2021.1.2,Win32,59.76214666
space,0.668085,space,0.96782,,,ms_small,0,103,103,103,1,0.953,0.2,False,None,T07,r1,2021-04-24_23h35.04.442,subsecond_timing_v2,2021.1.2,Win32,59.76214666
space,0.752405,space,0.901615,,,ms_small,0,104,104,104,1,0.847,0.1,False,None,T07,r1,2021-04-24_23h35.04.442,subsecond_timing_v2,2021.1.2,Win32,59.76214666
space,0.665985,space,0.71787,,,ms_small,0,105,105,105,1,0.706,0.2,False,None,T07,r1,2021-04-24_23h35.04.442,subsecond_timing_v2,2021.1.2,Win32,59.76214666
space,0.83512,space,0.767525,,,ms_small,0,106,106,106,1,0.741,0.1,False,None,T07,r1,2021-04-24_23h35.04.442,subsecond_timing_v2,2021.1.2,Win32,59.76214666
space,0.808585,space,0.804885,,,ms_small,0,107,107,107,1,0.67,0.1,False,None,T07,r1,2021-04-24_23h35.04.442,subsecond_timing_v2,2021.1.2,Win32,59.76214666
space,0.85149,space,0.888,,,ms_small,0,108,108,108,1,0.847,0.1,False,None,T07,r1,2021-04-24_23h35.04.442,subsecond_timing_v2,2021.1.2,Win32,59.76214666
space,0.85557,space,0.91984,,,ms_small,0,109,109,109,1,0.812,0.2,False,None,T07,r1,2021-04-24_23h35.04.442,subsecond_timing_v2,2021.1.2,Win32,59.76214666
space,0.818385,space,0.70549,,,ms_small,0,110,110,110,1,0.776,0.3,False,None,T07,r1,2021-04-24_23h35.04.442,subsecond_timing_v2,2021.1.2,Win32,59.76214666
space,0.80619,space,0.900685,,,ms_small,0,111,111,111,1,0.988,0.3,False,None,T07,r1,2021-04-24_23h35.04.442,subsecond_timing_v2,2021.1.2,Win32,59.76214666
space,0.6873,space,0.873875,,,ms_small,0,112,112,112,1,0.918,0.1,False,None,T07,r1,2021-04-24_23h35.04.442,subsecond_timing_v2,2021.1.2,Win32,59.76214666
space,0.85199,space,0.951135,,,ms_small,0,113,113,113,1,0.882,0.1,False,None,T07,r1,2021-04-24_23h35.04.442,subsecond_timing_v2,2021.1.2,Win32,59.76214666
space,0.64633,space,1.18953,,,ms_small,0,114,114,114,1,1.024,0.2,False,None,T07,r1,2021-04-24_23h35.04.442,subsecond_timing_v2,2021.1.2,Win32,59.76214666
space,0.620395,space,0.910885,,,ms_small,0,115,115,115,1,0.953,0.2,False,None,T07,r1,2021-04-24_23h35.04.442,subsecond_timing_v2,2021.1.2,Win32,59.76214666
space,0.618305,space,1.004875,,,ms_small,0,116,116,116,1,0.847,0.3,False,None,T07,r1,2021-04-24_23h35.04.442,subsecond_timing_v2,2021.1.2,Win32,59.76214666
space,0.61856,space,0.972465,,,ms_small,0,117,117,117,1,0.882,0.2,False,None,T07,r1,2021-04-24_23h35.04.442,subsecond_timing_v2,2021.1.2,Win32,59.76214666
space,0.86814,space,0.95046,,,ms_small,0,118,118,118,1,1.024,0.1,False,None,T07,r1,2021-04-24_23h35.04.442,subsecond_timing_v2,2021.1.2,Win32,59.76214666
space,1.103085,space,0.95059,,,ms_small,0,119,119,119,1,0.706,0.2,False,None,T07,r1,2021-04-24_23h35.04.442,subsecond_timing_v2,2021.1.2,Win32,59.76214666
space,0.853795,space,1.03536,,,ms_small,0,120,120,120,1,0.918,0.1,False,None,T07,r1,2021-04-24_23h35.04.442,subsecond_timing_v2,2021.1.2,Win32,59.76214666
space,0.733695,space,0.735885,,,ms_small,0,121,121,121,1,0.776,0.1,False,None,T07,r1,2021-04-24_23h35.04.442,subsecond_timing_v2,2021.1.2,Win32,59.76214666
space,0.837135,space,0.718595,,,ms_small,0,122,122,122,1,0.953,0.3,False,None,T07,r1,2021-04-24_23h35.04.442,subsecond_timing_v2,2021.1.2,Win32,59.76214666
space,0.668235,space,0.607025,,,ms_small,0,123,123,123,1,0.67,0.1,False,None,T07,r1,2021-04-24_23h35.04.442,subsecond_timing_v2,2021.1.2,Win32,59.76214666
space,0.851415,space,0.701195,,,ms_small,0,124,124,124,1,0.812,0.2,False,None,T07,r1,2021-04-24_23h35.04.442,subsecond_timing_v2,2021.1.2,Win32,59.76214666
space,0.720695,space,0.852435,,,ms_small,0,125,125,125,1,0.988,0.2,False,None,T07,r1,2021-04-24_23h35.04.442,subsecond_timing_v2,2021.1.2,Win32,59.76214666
space,0.73617,space,0.805645,,,ms_small,0,126,126,126,1,0.741,0.3,False,None,T07,r1,2021-04-24_23h35.04.442,subsecond_timing_v2,2021.1.2,Win32,59.76214666
space,0.684765,space,0.53477,,,ms_small,0,127,127,127,1,0.67,0.1,False,None,T07,r1,2021-04-24_23h35.04.442,subsecond_timing_v2,2021.1.2,Win32,59.76214666
space,0.75106,space,0.567675,,,ms_small,0,128,128,128,1,0.776,0.3,False,None,T07,r1,2021-04-24_23h35.04.442,subsecond_timing_v2,2021.1.2,Win32,59.76214666
space,0.751235,space,0.60123,,,ms_small,0,129,129,129,1,0.847,0.1,False,None,T07,r1,2021-04-24_23h35.04.442,subsecond_timing_v2,2021.1.2,Win32,59.76214666
space,0.690355,space,0.582615,,,ms_small,0,130,130,130,1,0.812,0.1,False,None,T07,r1,2021-04-24_23h35.04.442,subsecond_timing_v2,2021.1.2,Win32,59.76214666
space,0.77091,space,0.784025,,,ms_small,0,131,131,131,1,0.882,0.1,False,None,T07,r1,2021-04-24_23h35.04.442,subsecond_timing_v2,2021.1.2,Win32,59.76214666
space,0.84241,space,0.735865,,,ms_small,0,132,132,132,1,1.024,0.2,False,None,T07,r1,2021-04-24_23h35.04.442,subsecond_timing_v2,2021.1.2,Win32,59.76214666
space,0.782975,space,0.856005,,,ms_small,0,133,133,133,1,0.953,0.3,False,None,T07,r1,2021-04-24_23h35.04.442,subsecond_timing_v2,2021.1.2,Win32,59.76214666
space,0.909085,space,0.865645,,,ms_small,0,134,134,134,1,0.988,0.2,False,None,T07,r1,2021-04-24_23h35.04.442,subsecond_timing_v2,2021.1.2,Win32,59.76214666
space,0.836835,space,0.58945,,,ms_small,0,135,135,135,1,0.706,0.1,False,None,T07,r1,2021-04-24_23h35.04.442,subsecond_timing_v2,2021.1.2,Win32,59.76214666
space,0.7772,space,0.935625,,,ms_small,0,136,136,136,1,0.918,0.1,False,None,T07,r1,2021-04-24_23h35.04.442,subsecond_timing_v2,2021.1.2,Win32,59.76214666
space,0.784525,space,0.69201,,,ms_small,0,137,137,137,1,0.741,0.1,False,None,T07,r1,2021-04-24_23h35.04.442,subsecond_timing_v2,2021.1.2,Win32,59.76214666
space,0.684945,space,0.68921,,,ms_small,0,138,138,138,1,0.741,0.3,False,None,T07,r1,2021-04-24_23h35.04.442,subsecond_timing_v2,2021.1.2,Win32,59.76214666
space,0.750885,space,0.842125,,,ms_small,0,139,139,139,1,0.988,0.2,False,None,T07,r1,2021-04-24_23h35.04.442,subsecond_timing_v2,2021.1.2,Win32,59.76214666
space,0.72084,space,0.51324,,,ms_small,0,140,140,140,1,0.812,0.3,False,None,T07,r1,2021-04-24_23h35.04.442,subsecond_timing_v2,2021.1.2,Win32,59.76214666
space,0.502135,space,0.91569,,,ms_small,0,141,141,141,1,0.918,0.2,False,None,T07,r1,2021-04-24_23h35.04.442,subsecond_timing_v2,2021.1.2,Win32,59.76214666
space,0.850345,space,0.769255,,,ms_small,0,142,142,142,1,0.847,0.2,False,None,T07,r1,2021-04-24_23h35.04.442,subsecond_timing_v2,2021.1.2,Win32,59.76214666
space,0.82288,space,0.842735,,,ms_small,0,143,143,143,1,0.953,0.1,False,None,T07,r1,2021-04-24_23h35.04.442,subsecond_timing_v2,2021.1.2,Win32,59.76214666
space,0.77431,space,0.74293,,,ms_small,0,144,144,144,1,0.776,0.3,False,None,T07,r1,2021-04-24_23h35.04.442,subsecond_timing_v2,2021.1.2,Win32,59.76214666
space,0.751275,space,0.78441,,,ms_small,0,145,145,145,1,0.706,0.3,False,None,T07,r1,2021-04-24_23h35.04.442,subsecond_timing_v2,2021.1.2,Win32,59.76214666
space,0.77749,space,1.06666,,,ms_small,0,146,146,146,1,1.024,0.1,False,None,T07,r1,2021-04-24_23h35.04.442,subsecond_timing_v2,2021.1.2,Win32,59.76214666
space,0.856905,space,0.83416,,,ms_small,0,147,147,147,1,0.882,0.2,False,None,T07,r1,2021-04-24_23h35.04.442,subsecond_timing_v2,2021.1.2,Win32,59.76214666
space,0.66804,space,0.551685,,,ms_small,0,148,148,148,1,0.67,0.3,False,None,T07,r1,2021-04-24_23h35.04.442,subsecond_timing_v2,2021.1.2,Win32,59.76214666
space,0.76943,space,0.53589,,,ms_small,0,149,149,149,1,0.67,0.3,False,None,T07,r1,2021-04-24_23h35.04.442,subsecond_timing_v2,2021.1.2,Win32,59.76214666
space,0.69135,space,0.60778,,,ms_small,0,150,150,150,1,0.741,0.3,False,None,T07,r1,2021-04-24_23h35.04.442,subsecond_timing_v2,2021.1.2,Win32,59.76214666
space,0.718085,space,0.808945,,,ms_small,0,151,151,151,1,0.918,0.1,False,None,T07,r1,2021-04-24_23h35.04.442,subsecond_timing_v2,2021.1.2,Win32,59.76214666
space,0.684715,space,0.800575,,,ms_small,0,152,152,152,1,0.706,0.3,False,None,T07,r1,2021-04-24_23h35.04.442,subsecond_timing_v2,2021.1.2,Win32,59.76214666
space,0.851865,space,0.9564,,,ms_small,0,153,153,153,1,0.988,0.2,False,None,T07,r1,2021-04-24_23h35.04.442,subsecond_timing_v2,2021.1.2,Win32,59.76214666
space,0.76059,space,1.01689,,,ms_small,0,154,154,154,1,0.847,0.2,False,None,T07,r1,2021-04-24_23h35.04.442,subsecond_timing_v2,2021.1.2,Win32,59.76214666
space,0.691475,space,0.802325,,,ms_small,0,155,155,155,1,0.776,0.3,False,None,T07,r1,2021-04-24_23h35.04.442,subsecond_timing_v2,2021.1.2,Win32,59.76214666
space,0.587195,space,0.81736,,,ms_small,0,156,156,156,1,0.882,0.2,False,None,T07,r1,2021-04-24_23h35.04.442,subsecond_timing_v2,2021.1.2,Win32,59.76214666
space,0.70173,space,0.551345,,,ms_small,0,157,157,157,1,0.812,0.1,False,None,T07,r1,2021-04-24_23h35.04.442,subsecond_timing_v2,2021.1.2,Win32,59.76214666
space,0.757055,space,1.033385,,,ms_small,0,158,158,158,1,1.024,0.1,False,None,T07,r1,2021-04-24_23h35.04.442,subsecond_timing_v2,2021.1.2,Win32,59.76214666
space,0.822035,space,1.034235,,,ms_small,0,159,159,159,1,0.953,0.2,False,None,T07,r1,2021-04-24_23h35.04.442,subsecond_timing_v2,2021.1.2,Win32,59.76214666
space,0.768185,space,0.82123,,,ms_small,0,160,160,160,1,0.812,0.2,False,None,T07,r1,2021-04-24_23h35.04.442,subsecond_timing_v2,2021.1.2,Win32,59.76214666
space,0.7178,space,0.715045,,,ms_small,0,161,161,161,1,0.67,0.1,False,None,T07,r1,2021-04-24_23h35.04.442,subsecond_timing_v2,2021.1.2,Win32,59.76214666
space,0.835175,space,0.868055,,,ms_small,0,162,162,162,1,0.953,0.1,False,None,T07,r1,2021-04-24_23h35.04.442,subsecond_timing_v2,2021.1.2,Win32,59.76214666
space,0.90093,space,0.85765,,,ms_small,0,163,163,163,1,0.882,0.3,False,None,T07,r1,2021-04-24_23h35.04.442,subsecond_timing_v2,2021.1.2,Win32,59.76214666
space,0.801915,space,0.98495,,,ms_small,0,164,164,164,1,0.988,0.1,False,None,T07,r1,2021-04-24_23h35.04.442,subsecond_timing_v2,2021.1.2,Win32,59.76214666
space,0.70952,space,0.700435,,,ms_small,0,165,165,165,1,0.706,0.1,False,None,T07,r1,2021-04-24_23h35.04.442,subsecond_timing_v2,2021.1.2,Win32,59.76214666
space,0.851465,space,0.907135,,,ms_small,0,166,166,166,1,1.024,0.3,False,None,T07,r1,2021-04-24_23h35.04.442,subsecond_timing_v2,2021.1.2,Win32,59.76214666
space,0.776115,space,0.96795,,,ms_small,0,167,167,167,1,0.847,0.3,False,None,T07,r1,2021-04-24_23h35.04.442,subsecond_timing_v2,2021.1.2,Win32,59.76214666
space,0.771795,space,0.873945,,,ms_small,0,168,168,168,1,0.741,0.3,False,None,T07,r1,2021-04-24_23h35.04.442,subsecond_timing_v2,2021.1.2,Win32,59.76214666
space,0.66758,space,0.817675,,,ms_small,0,169,169,169,1,0.918,0.2,False,None,T07,r1,2021-04-24_23h35.04.442,subsecond_timing_v2,2021.1.2,Win32,59.76214666
space,0.68577,space,0.651735,,,ms_small,0,170,170,170,1,0.776,0.1,False,None,T07,r1,2021-04-24_23h35.04.442,subsecond_timing_v2,2021.1.2,Win32,59.76214666
space,0.784455,space,0.702085,,,ms_small,0,171,171,171,1,0.882,0.3,False,None,T07,r1,2021-04-24_23h35.04.442,subsecond_timing_v2,2021.1.2,Win32,59.76214666
space,0.833465,space,0.61768,,,ms_small,0,172,172,172,1,0.741,0.1,False,None,T07,r1,2021-04-24_23h35.04.442,subsecond_timing_v2,2021.1.2,Win32,59.76214666
space,0.80133,space,0.93583,,,ms_small,0,173,173,173,1,0.988,0.1,False,None,T07,r1,2021-04-24_23h35.04.442,subsecond_timing_v2,2021.1.2,Win32,59.76214666
space,0.61768,space,0.700265,,,ms_small,0,174,174,174,1,0.706,0.2,False,None,T07,r1,2021-04-24_23h35.04.442,subsecond_timing_v2,2021.1.2,Win32,59.76214666
space,0.93189,space,0.903415,,,ms_small,0,175,175,175,1,0.918,0.2,False,None,T07,r1,2021-04-24_23h35.04.442,subsecond_timing_v2,2021.1.2,Win32,59.76214666
space,0.76894,space,0.920995,,,ms_small,0,176,176,176,1,0.953,0.2,False,None,T07,r1,2021-04-24_23h35.04.442,subsecond_timing_v2,2021.1.2,Win32,59.76214666
space,0.634595,space,0.634905,,,ms_small,0,177,177,177,1,0.67,0.2,False,None,T07,r1,2021-04-24_23h35.04.442,subsecond_timing_v2,2021.1.2,Win32,59.76214666
space,0.65174,space,0.8847,,,ms_small,0,178,178,178,1,0.847,0.3,False,None,T07,r1,2021-04-24_23h35.04.442,subsecond_timing_v2,2021.1.2,Win32,59.76214666
space,0.768925,space,0.887535,,,ms_small,0,179,179,179,1,0.776,0.1,False,None,T07,r1,2021-04-24_23h35.04.442,subsecond_timing_v2,2021.1.2,Win32,59.76214666
space,0.736055,space,0.73486,,,ms_small,0,180,180,180,1,0.812,0.1,False,None,T07,r1,2021-04-24_23h35.04.442,subsecond_timing_v2,2021.1.2,Win32,59.76214666
space,0.85759,space,1.033945,,,ms_small,0,181,181,181,1,1.024,0.2,False,None,T07,r1,2021-04-24_23h35.04.442,subsecond_timing_v2,2021.1.2,Win32,59.76214666
space,0.6504,space,0.957505,,,ms_small,0,182,182,182,1,0.706,0.3,False,None,T07,r1,2021-04-24_23h35.04.442,subsecond_timing_v2,2021.1.2,Win32,59.76214666
space,0.80338,space,0.86876,,,ms_small,0,183,183,183,1,0.988,0.1,False,None,T07,r1,2021-04-24_23h35.04.442,subsecond_timing_v2,2021.1.2,Win32,59.76214666
space,0.768735,space,0.78658,,,ms_small,0,184,184,184,1,1.024,0.3,False,None,T07,r1,2021-04-24_23h35.04.442,subsecond_timing_v2,2021.1.2,Win32,59.76214666
space,0.734575,space,0.851765,,,ms_small,0,185,185,185,1,0.847,0.1,False,None,T07,r1,2021-04-24_23h35.04.442,subsecond_timing_v2,2021.1.2,Win32,59.76214666
space,0.734415,space,0.55241,,,ms_small,0,186,186,186,1,0.741,0.1,False,None,T07,r1,2021-04-24_23h35.04.442,subsecond_timing_v2,2021.1.2,Win32,59.76214666
space,0.784885,space,0.72621,,,ms_small,0,187,187,187,1,0.776,0.3,False,None,T07,r1,2021-04-24_23h35.04.442,subsecond_timing_v2,2021.1.2,Win32,59.76214666
space,0.636205,space,0.585425,,,ms_small,0,188,188,188,1,0.812,0.3,False,None,T07,r1,2021-04-24_23h35.04.442,subsecond_timing_v2,2021.1.2,Win32,59.76214666
space,0.68778,space,0.5379,,,ms_small,0,189,189,189,1,0.918,0.3,False,None,T07,r1,2021-04-24_23h35.04.442,subsecond_timing_v2,2021.1.2,Win32,59.76214666
space,0.60145,space,0.47593,,,ms_small,0,190,190,190,1,0.67,0.1,False,None,T07,r1,2021-04-24_23h35.04.442,subsecond_timing_v2,2021.1.2,Win32,59.76214666
space,0.722085,space,0.70134,,,ms_small,0,191,191,191,1,0.882,0.2,False,None,T07,r1,2021-04-24_23h35.04.442,subsecond_timing_v2,2021.1.2,Win32,59.76214666
space,0.733565,space,0.89902,,,ms_small,0,192,192,192,1,0.953,0.1,False,None,T07,r1,2021-04-24_23h35.04.442,subsecond_timing_v2,2021.1.2,Win32,59.76214666
space,0.65753,space,0.68384,,,ms_small,0,193,193,193,1,0.776,0.1,False,None,T07,r1,2021-04-24_23h35.04.442,subsecond_timing_v2,2021.1.2,Win32,59.76214666
space,0.78598,space,0.668775,,,ms_small,0,194,194,194,1,0.988,0.3,False,None,T07,r1,2021-04-24_23h35.04.442,subsecond_timing_v2,2021.1.2,Win32,59.76214666
space,0.703395,space,0.634205,,,ms_small,0,195,195,195,1,0.953,0.1,False,None,T07,r1,2021-04-24_23h35.04.442,subsecond_timing_v2,2021.1.2,Win32,59.76214666
space,0.78704,space,0.6351,,,ms_small,0,196,196,196,1,0.741,0.3,False,None,T07,r1,2021-04-24_23h35.04.442,subsecond_timing_v2,2021.1.2,Win32,59.76214666
space,0.705515,space,0.68081,,,ms_small,0,197,197,197,1,0.67,0.3,False,None,T07,r1,2021-04-24_23h35.04.442,subsecond_timing_v2,2021.1.2,Win32,59.76214666
space,0.78422,space,0.66757,,,ms_small,0,198,198,198,1,0.847,0.3,False,None,T07,r1,2021-04-24_23h35.04.442,subsecond_timing_v2,2021.1.2,Win32,59.76214666
space,0.50177,space,0.55138,,,ms_small,0,199,199,199,1,0.882,0.2,False,None,T07,r1,2021-04-24_23h35.04.442,subsecond_timing_v2,2021.1.2,Win32,59.76214666
space,0.61952,space,1.05698,,,ms_small,0,200,200,200,1,0.706,0.3,False,None,T07,r1,2021-04-24_23h35.04.442,subsecond_timing_v2,2021.1.2,Win32,59.76214666
space,0.58502,space,0.568635,,,ms_small,0,201,201,201,1,0.812,0.1,False,None,T07,r1,2021-04-24_23h35.04.442,subsecond_timing_v2,2021.1.2,Win32,59.76214666
