key_resp_start.keys,key_resp_start.rt,key_resp_stop.keys,key_resp_stop.rt,feedback_range,hit,stimulus_range,trials.thisRepN,trials.thisTrialN,trials.thisN,trials.thisIndex,trials.ran,stimulus_duration,onset,feedback,feedback_range_fromfile,participant,session,date,expName,psychopyVersion,OS,frameRate
space,1.184125,space,0.9667,0.3,TRUE,Training,0,0,0,0,1,1,0.2,True,0.3,T09,r2,2021-04-25_15h05.25.549,subsecond_timing_v2,2021.1.2,MacIntel,60.0024001
space,0.83328,space,0.76336,0.3,TRUE,Training,0,1,1,1,1,0.75,0.2,True,0.3,T09,r2,2021-04-25_15h05.25.549,subsecond_timing_v2,2021.1.2,MacIntel,60.0024001
space,0.760835,space,0.566245,0.3,TRUE,Training,0,2,2,2,1,0.5,0.2,True,0.3,T09,r2,2021-04-25_15h05.25.549,subsecond_timing_v2,2021.1.2,MacIntel,60.0024001
space,0.718515,space,0.700975,0.3,FALSE,Training,0,3,3,3,1,0.5,0.3,True,0.3,T09,r2,2021-04-25_15h05.25.549,subsecond_timing_v2,2021.1.2,MacIntel,60.0024001
space,0.63378,space,0.817415,0.3,TRUE,Training,0,4,4,4,1,0.75,0.3,True,0.3,T09,r2,2021-04-25_15h05.25.549,subsecond_timing_v2,2021.1.2,MacIntel,60.0024001
space,0.76804,space,0.92047,0.3,TRUE,Training,0,5,5,5,1,1,0.3,True,0.3,T09,r2,2021-04-25_15h05.25.549,subsecond_timing_v2,2021.1.2,MacIntel,60.0024001
space,0.600355,space,0.917245,,,ms_large,0,6,6,6,1,1.165,0.2,False,None,T09,r2,2021-04-25_15h05.25.549,subsecond_timing_v2,2021.1.2,MacIntel,60.0024001
space,0.55103,space,1.0496,,,ms_large,0,7,7,7,1,1.094,0.3,False,None,T09,r2,2021-04-25_15h05.25.549,subsecond_timing_v2,2021.1.2,MacIntel,60.0024001
space,1.234755,space,1.267055,,,ms_large,0,8,8,8,1,1.2,0.3,False,None,T09,r2,2021-04-25_15h05.25.549,subsecond_timing_v2,2021.1.2,MacIntel,60.0024001
space,1.000605,space,1.16767,,,ms_large,0,9,9,9,1,1.024,0.1,False,None,T09,r2,2021-04-25_15h05.25.549,subsecond_timing_v2,2021.1.2,MacIntel,60.0024001
space,0.867745,space,1.083725,,,ms_large,0,10,10,10,1,0.953,0.3,False,None,T09,r2,2021-04-25_15h05.25.549,subsecond_timing_v2,2021.1.2,MacIntel,60.0024001
space,0.96672,space,1.118955,,,ms_large,0,11,11,11,1,0.847,0.1,False,None,T09,r2,2021-04-25_15h05.25.549,subsecond_timing_v2,2021.1.2,MacIntel,60.0024001
space,0.918745,space,0.91986,,,ms_large,0,12,12,12,1,0.882,0.3,False,None,T09,r2,2021-04-25_15h05.25.549,subsecond_timing_v2,2021.1.2,MacIntel,60.0024001
space,0.8677,space,1.11709,,,ms_large,0,13,13,13,1,1.129,0.1,False,None,T09,r2,2021-04-25_15h05.25.549,subsecond_timing_v2,2021.1.2,MacIntel,60.0024001
space,1.001705,space,1.167345,,,ms_large,0,14,14,14,1,1.059,0.3,False,None,T09,r2,2021-04-25_15h05.25.549,subsecond_timing_v2,2021.1.2,MacIntel,60.0024001
space,0.90193,space,1.067655,,,ms_large,0,15,15,15,1,0.918,0.3,False,None,T09,r2,2021-04-25_15h05.25.549,subsecond_timing_v2,2021.1.2,MacIntel,60.0024001
space,0.401165,space,1.36915,,,ms_large,0,16,16,16,1,0.988,0.1,False,None,T09,r2,2021-04-25_15h05.25.549,subsecond_timing_v2,2021.1.2,MacIntel,60.0024001
space,0.75079,space,1.15098,,,ms_large,0,17,17,17,1,0.953,0.2,False,None,T09,r2,2021-04-25_15h05.25.549,subsecond_timing_v2,2021.1.2,MacIntel,60.0024001
space,0.80036,space,1.167015,,,ms_large,0,18,18,18,1,1.129,0.3,False,None,T09,r2,2021-04-25_15h05.25.549,subsecond_timing_v2,2021.1.2,MacIntel,60.0024001
space,0.968165,space,1.10114,,,ms_large,0,19,19,19,1,0.988,0.2,False,None,T09,r2,2021-04-25_15h05.25.549,subsecond_timing_v2,2021.1.2,MacIntel,60.0024001
space,0.84918,space,1.30437,,,ms_large,0,20,20,20,1,1.024,0.1,False,None,T09,r2,2021-04-25_15h05.25.549,subsecond_timing_v2,2021.1.2,MacIntel,60.0024001
space,0.484205,space,1.03326,,,ms_large,0,21,21,21,1,1.165,0.1,False,None,T09,r2,2021-04-25_15h05.25.549,subsecond_timing_v2,2021.1.2,MacIntel,60.0024001
space,1.299985,space,1.06834,,,ms_large,0,22,22,22,1,1.2,0.1,False,None,T09,r2,2021-04-25_15h05.25.549,subsecond_timing_v2,2021.1.2,MacIntel,60.0024001
space,1.085775,space,1.137335,,,ms_large,0,23,23,23,1,0.882,0.2,False,None,T09,r2,2021-04-25_15h05.25.549,subsecond_timing_v2,2021.1.2,MacIntel,60.0024001
space,0.916415,space,1.05074,,,ms_large,0,24,24,24,1,0.847,0.3,False,None,T09,r2,2021-04-25_15h05.25.549,subsecond_timing_v2,2021.1.2,MacIntel,60.0024001
space,0.9836,space,1.320945,,,ms_large,0,25,25,25,1,1.094,0.1,False,None,T09,r2,2021-04-25_15h05.25.549,subsecond_timing_v2,2021.1.2,MacIntel,60.0024001
space,0.85077,space,1.403465,,,ms_large,0,26,26,26,1,1.059,0.1,False,None,T09,r2,2021-04-25_15h05.25.549,subsecond_timing_v2,2021.1.2,MacIntel,60.0024001
space,0.75209,space,1.20575,,,ms_large,0,27,27,27,1,0.918,0.3,False,None,T09,r2,2021-04-25_15h05.25.549,subsecond_timing_v2,2021.1.2,MacIntel,60.0024001
space,0.932135,space,1.219795,,,ms_large,0,28,28,28,1,0.988,0.2,False,None,T09,r2,2021-04-25_15h05.25.549,subsecond_timing_v2,2021.1.2,MacIntel,60.0024001
space,0.95398,space,1.136295,,,ms_large,0,29,29,29,1,1.165,0.2,False,None,T09,r2,2021-04-25_15h05.25.549,subsecond_timing_v2,2021.1.2,MacIntel,60.0024001
space,1.033485,space,1.26952,,,ms_large,0,30,30,30,1,1.129,0.1,False,None,T09,r2,2021-04-25_15h05.25.549,subsecond_timing_v2,2021.1.2,MacIntel,60.0024001
space,0.82147,space,1.417725,,,ms_large,0,31,31,31,1,1.059,0.1,False,None,T09,r2,2021-04-25_15h05.25.549,subsecond_timing_v2,2021.1.2,MacIntel,60.0024001
space,1.11705,space,1.30035,,,ms_large,0,32,32,32,1,0.918,0.3,False,None,T09,r2,2021-04-25_15h05.25.549,subsecond_timing_v2,2021.1.2,MacIntel,60.0024001
space,0.950705,space,0.96722,,,ms_large,0,33,33,33,1,1.2,0.3,False,None,T09,r2,2021-04-25_15h05.25.549,subsecond_timing_v2,2021.1.2,MacIntel,60.0024001
space,1.03421,space,1.003705,,,ms_large,0,34,34,34,1,0.847,0.1,False,None,T09,r2,2021-04-25_15h05.25.549,subsecond_timing_v2,2021.1.2,MacIntel,60.0024001
space,0.784305,space,1.001645,,,ms_large,0,35,35,35,1,1.024,0.1,False,None,T09,r2,2021-04-25_15h05.25.549,subsecond_timing_v2,2021.1.2,MacIntel,60.0024001
space,1.12076,space,1.201345,,,ms_large,0,36,36,36,1,0.882,0.1,False,None,T09,r2,2021-04-25_15h05.25.549,subsecond_timing_v2,2021.1.2,MacIntel,60.0024001
space,1.084105,space,1.167105,,,ms_large,0,37,37,37,1,1.094,0.2,False,None,T09,r2,2021-04-25_15h05.25.549,subsecond_timing_v2,2021.1.2,MacIntel,60.0024001
space,0.93293,space,1.25121,,,ms_large,0,38,38,38,1,0.953,0.1,False,None,T09,r2,2021-04-25_15h05.25.549,subsecond_timing_v2,2021.1.2,MacIntel,60.0024001
space,0.616815,space,1.134235,,,ms_large,0,39,39,39,1,1.165,0.2,False,None,T09,r2,2021-04-25_15h05.25.549,subsecond_timing_v2,2021.1.2,MacIntel,60.0024001
space,0.986545,space,1.101335,,,ms_large,0,40,40,40,1,0.953,0.1,False,None,T09,r2,2021-04-25_15h05.25.549,subsecond_timing_v2,2021.1.2,MacIntel,60.0024001
space,0.61966,space,1.267365,,,ms_large,0,41,41,41,1,0.988,0.1,False,None,T09,r2,2021-04-25_15h05.25.549,subsecond_timing_v2,2021.1.2,MacIntel,60.0024001
space,0.734475,space,1.335005,,,ms_large,0,42,42,42,1,1.094,0.1,False,None,T09,r2,2021-04-25_15h05.25.549,subsecond_timing_v2,2021.1.2,MacIntel,60.0024001
space,0.66825,space,1.56977,,,ms_large,0,43,43,43,1,1.129,0.3,False,None,T09,r2,2021-04-25_15h05.25.549,subsecond_timing_v2,2021.1.2,MacIntel,60.0024001
space,0.68518,space,1.25109,,,ms_large,0,44,44,44,1,0.882,0.2,False,None,T09,r2,2021-04-25_15h05.25.549,subsecond_timing_v2,2021.1.2,MacIntel,60.0024001
space,0.887375,space,1.366945,,,ms_large,0,45,45,45,1,1.2,0.1,False,None,T09,r2,2021-04-25_15h05.25.549,subsecond_timing_v2,2021.1.2,MacIntel,60.0024001
space,0.870925,space,1.351155,,,ms_large,0,46,46,46,1,1.024,0.1,False,None,T09,r2,2021-04-25_15h05.25.549,subsecond_timing_v2,2021.1.2,MacIntel,60.0024001
space,0.88404,space,1.71766,,,ms_large,0,47,47,47,1,0.918,0.2,False,None,T09,r2,2021-04-25_15h05.25.549,subsecond_timing_v2,2021.1.2,MacIntel,60.0024001
space,0.88333,space,1.61908,,,ms_large,0,48,48,48,1,0.847,0.1,False,None,T09,r2,2021-04-25_15h05.25.549,subsecond_timing_v2,2021.1.2,MacIntel,60.0024001
space,0.866525,space,1.45121,,,ms_large,0,49,49,49,1,1.059,0.3,False,None,T09,r2,2021-04-25_15h05.25.549,subsecond_timing_v2,2021.1.2,MacIntel,60.0024001
space,0.751745,space,1.384335,,,ms_large,0,50,50,50,1,0.953,0.2,False,None,T09,r2,2021-04-25_15h05.25.549,subsecond_timing_v2,2021.1.2,MacIntel,60.0024001
space,0.850515,space,1.433835,,,ms_large,0,51,51,51,1,1.024,0.3,False,None,T09,r2,2021-04-25_15h05.25.549,subsecond_timing_v2,2021.1.2,MacIntel,60.0024001
space,0.85029,space,1.45106,,,ms_large,0,52,52,52,1,1.165,0.3,False,None,T09,r2,2021-04-25_15h05.25.549,subsecond_timing_v2,2021.1.2,MacIntel,60.0024001
space,0.934565,space,1.300695,,,ms_large,0,53,53,53,1,0.847,0.3,False,None,T09,r2,2021-04-25_15h05.25.549,subsecond_timing_v2,2021.1.2,MacIntel,60.0024001
space,1.10168,space,1.517665,,,ms_large,0,54,54,54,1,1.2,0.1,False,None,T09,r2,2021-04-25_15h05.25.549,subsecond_timing_v2,2021.1.2,MacIntel,60.0024001
space,0.95037,space,1.669635,,,ms_large,0,55,55,55,1,0.988,0.3,False,None,T09,r2,2021-04-25_15h05.25.549,subsecond_timing_v2,2021.1.2,MacIntel,60.0024001
space,0.75096,space,1.11708,,,ms_large,0,56,56,56,1,0.882,0.1,False,None,T09,r2,2021-04-25_15h05.25.549,subsecond_timing_v2,2021.1.2,MacIntel,60.0024001
space,0.634085,space,1.06976,,,ms_large,0,57,57,57,1,1.059,0.1,False,None,T09,r2,2021-04-25_15h05.25.549,subsecond_timing_v2,2021.1.2,MacIntel,60.0024001
space,0.78435,space,0.98613,,,ms_large,0,58,58,58,1,1.094,0.1,False,None,T09,r2,2021-04-25_15h05.25.549,subsecond_timing_v2,2021.1.2,MacIntel,60.0024001
space,0.76844,space,1.120315,,,ms_large,0,59,59,59,1,1.129,0.3,False,None,T09,r2,2021-04-25_15h05.25.549,subsecond_timing_v2,2021.1.2,MacIntel,60.0024001
space,0.700135,space,1.06718,,,ms_large,0,60,60,60,1,0.918,0.3,False,None,T09,r2,2021-04-25_15h05.25.549,subsecond_timing_v2,2021.1.2,MacIntel,60.0024001
space,0.799965,space,1.200795,,,ms_large,0,61,61,61,1,1.129,0.1,False,None,T09,r2,2021-04-25_15h05.25.549,subsecond_timing_v2,2021.1.2,MacIntel,60.0024001
space,0.684225,space,1.49999,,,ms_large,0,62,62,62,1,1.165,0.3,False,None,T09,r2,2021-04-25_15h05.25.549,subsecond_timing_v2,2021.1.2,MacIntel,60.0024001
space,0.70265,space,1.284485,,,ms_large,0,63,63,63,1,0.953,0.2,False,None,T09,r2,2021-04-25_15h05.25.549,subsecond_timing_v2,2021.1.2,MacIntel,60.0024001
space,0.65259,space,1.301265,,,ms_large,0,64,64,64,1,1.094,0.2,False,None,T09,r2,2021-04-25_15h05.25.549,subsecond_timing_v2,2021.1.2,MacIntel,60.0024001
space,0.967775,space,1.533695,,,ms_large,0,65,65,65,1,0.882,0.1,False,None,T09,r2,2021-04-25_15h05.25.549,subsecond_timing_v2,2021.1.2,MacIntel,60.0024001
space,1.019005,space,1.30094,,,ms_large,0,66,66,66,1,0.918,0.2,False,None,T09,r2,2021-04-25_15h05.25.549,subsecond_timing_v2,2021.1.2,MacIntel,60.0024001
space,0.885445,space,1.51873,,,ms_large,0,67,67,67,1,0.988,0.1,False,None,T09,r2,2021-04-25_15h05.25.549,subsecond_timing_v2,2021.1.2,MacIntel,60.0024001
space,0.818075,space,1.7015,,,ms_large,0,68,68,68,1,1.024,0.1,False,None,T09,r2,2021-04-25_15h05.25.549,subsecond_timing_v2,2021.1.2,MacIntel,60.0024001
space,0.834665,space,1.36725,,,ms_large,0,69,69,69,1,1.2,0.1,False,None,T09,r2,2021-04-25_15h05.25.549,subsecond_timing_v2,2021.1.2,MacIntel,60.0024001
space,0.93748,space,1.519165,,,ms_large,0,70,70,70,1,1.059,0.1,False,None,T09,r2,2021-04-25_15h05.25.549,subsecond_timing_v2,2021.1.2,MacIntel,60.0024001
space,0.98415,space,1.450175,,,ms_large,0,71,71,71,1,0.847,0.1,False,None,T09,r2,2021-04-25_15h05.25.549,subsecond_timing_v2,2021.1.2,MacIntel,60.0024001
space,0.984825,space,1.48397,,,ms_large,0,72,72,72,1,1.094,0.2,False,None,T09,r2,2021-04-25_15h05.25.549,subsecond_timing_v2,2021.1.2,MacIntel,60.0024001
space,0.953685,space,1.40315,,,ms_large,0,73,73,73,1,0.918,0.3,False,None,T09,r2,2021-04-25_15h05.25.549,subsecond_timing_v2,2021.1.2,MacIntel,60.0024001
space,0.88363,space,1.250175,,,ms_large,0,74,74,74,1,0.953,0.2,False,None,T09,r2,2021-04-25_15h05.25.549,subsecond_timing_v2,2021.1.2,MacIntel,60.0024001
space,0.801075,space,1.70223,,,ms_large,0,75,75,75,1,0.882,0.2,False,None,T09,r2,2021-04-25_15h05.25.549,subsecond_timing_v2,2021.1.2,MacIntel,60.0024001
space,0.91797,space,1.35033,,,ms_large,0,76,76,76,1,0.988,0.3,False,None,T09,r2,2021-04-25_15h05.25.549,subsecond_timing_v2,2021.1.2,MacIntel,60.0024001
space,0.9008,space,1.61725,,,ms_large,0,77,77,77,1,1.2,0.1,False,None,T09,r2,2021-04-25_15h05.25.549,subsecond_timing_v2,2021.1.2,MacIntel,60.0024001
space,0.650135,space,1.43449,,,ms_large,0,78,78,78,1,1.024,0.2,False,None,T09,r2,2021-04-25_15h05.25.549,subsecond_timing_v2,2021.1.2,MacIntel,60.0024001
space,0.68372,space,1.419105,,,ms_large,0,79,79,79,1,1.129,0.1,False,None,T09,r2,2021-04-25_15h05.25.549,subsecond_timing_v2,2021.1.2,MacIntel,60.0024001
space,0.850285,space,1.21766,,,ms_large,0,80,80,80,1,1.165,0.3,False,None,T09,r2,2021-04-25_15h05.25.549,subsecond_timing_v2,2021.1.2,MacIntel,60.0024001
space,0.68419,space,1.02045,,,ms_large,0,81,81,81,1,1.059,0.2,False,None,T09,r2,2021-04-25_15h05.25.549,subsecond_timing_v2,2021.1.2,MacIntel,60.0024001
space,0.95137,space,1.317595,,,ms_large,0,82,82,82,1,0.847,0.1,False,None,T09,r2,2021-04-25_15h05.25.549,subsecond_timing_v2,2021.1.2,MacIntel,60.0024001
space,0.58376,space,1.31658,,,ms_large,0,83,83,83,1,1.024,0.1,False,None,T09,r2,2021-04-25_15h05.25.549,subsecond_timing_v2,2021.1.2,MacIntel,60.0024001
space,0.83527,space,1.30188,,,ms_large,0,84,84,84,1,1.059,0.3,False,None,T09,r2,2021-04-25_15h05.25.549,subsecond_timing_v2,2021.1.2,MacIntel,60.0024001
space,0.9011,space,1.417235,,,ms_large,0,85,85,85,1,0.918,0.1,False,None,T09,r2,2021-04-25_15h05.25.549,subsecond_timing_v2,2021.1.2,MacIntel,60.0024001
space,0.801915,space,1.450705,,,ms_large,0,86,86,86,1,1.165,0.1,False,None,T09,r2,2021-04-25_15h05.25.549,subsecond_timing_v2,2021.1.2,MacIntel,60.0024001
space,0.71767,space,1.35061,,,ms_large,0,87,87,87,1,0.953,0.1,False,None,T09,r2,2021-04-25_15h05.25.549,subsecond_timing_v2,2021.1.2,MacIntel,60.0024001
space,0.67098,space,1.45206,,,ms_large,0,88,88,88,1,0.882,0.1,False,None,T09,r2,2021-04-25_15h05.25.549,subsecond_timing_v2,2021.1.2,MacIntel,60.0024001
space,0.518155,space,1.45064,,,ms_large,0,89,89,89,1,0.847,0.1,False,None,T09,r2,2021-04-25_15h05.25.549,subsecond_timing_v2,2021.1.2,MacIntel,60.0024001
space,0.751295,space,1.401655,,,ms_large,0,90,90,90,1,1.094,0.1,False,None,T09,r2,2021-04-25_15h05.25.549,subsecond_timing_v2,2021.1.2,MacIntel,60.0024001
space,0.57022,space,1.51696,,,ms_large,0,91,91,91,1,1.129,0.2,False,None,T09,r2,2021-04-25_15h05.25.549,subsecond_timing_v2,2021.1.2,MacIntel,60.0024001
space,0.968105,space,1.50344,,,ms_large,0,92,92,92,1,1.2,0.1,False,None,T09,r2,2021-04-25_15h05.25.549,subsecond_timing_v2,2021.1.2,MacIntel,60.0024001
space,0.73508,space,1.48376,,,ms_large,0,93,93,93,1,0.988,0.1,False,None,T09,r2,2021-04-25_15h05.25.549,subsecond_timing_v2,2021.1.2,MacIntel,60.0024001
space,0.58739,space,1.53619,,,ms_large,0,94,94,94,1,1.129,0.3,False,None,T09,r2,2021-04-25_15h05.25.549,subsecond_timing_v2,2021.1.2,MacIntel,60.0024001
space,0.467985,space,1.48453,,,ms_large,0,95,95,95,1,1.165,0.2,False,None,T09,r2,2021-04-25_15h05.25.549,subsecond_timing_v2,2021.1.2,MacIntel,60.0024001
space,0.984065,space,1.200935,,,ms_large,0,96,96,96,1,1.024,0.3,False,None,T09,r2,2021-04-25_15h05.25.549,subsecond_timing_v2,2021.1.2,MacIntel,60.0024001
space,0.90032,space,1.451905,,,ms_large,0,97,97,97,1,1.094,0.1,False,None,T09,r2,2021-04-25_15h05.25.549,subsecond_timing_v2,2021.1.2,MacIntel,60.0024001
space,0.917325,space,1.486805,,,ms_large,0,98,98,98,1,1.059,0.2,False,None,T09,r2,2021-04-25_15h05.25.549,subsecond_timing_v2,2021.1.2,MacIntel,60.0024001
space,0.683515,space,1.36852,,,ms_large,0,99,99,99,1,1.2,0.1,False,None,T09,r2,2021-04-25_15h05.25.549,subsecond_timing_v2,2021.1.2,MacIntel,60.0024001
space,1.03389,space,1.50104,,,ms_large,0,100,100,100,1,0.882,0.3,False,None,T09,r2,2021-04-25_15h05.25.549,subsecond_timing_v2,2021.1.2,MacIntel,60.0024001
space,0.786705,space,1.220815,,,ms_large,0,101,101,101,1,0.918,0.3,False,None,T09,r2,2021-04-25_15h05.25.549,subsecond_timing_v2,2021.1.2,MacIntel,60.0024001
space,0.803435,space,1.451315,,,ms_large,0,102,102,102,1,0.988,0.3,False,None,T09,r2,2021-04-25_15h05.25.549,subsecond_timing_v2,2021.1.2,MacIntel,60.0024001
space,0.817775,space,1.584255,,,ms_large,0,103,103,103,1,0.847,0.1,False,None,T09,r2,2021-04-25_15h05.25.549,subsecond_timing_v2,2021.1.2,MacIntel,60.0024001
space,0.734375,space,1.350805,,,ms_large,0,104,104,104,1,0.953,0.3,False,None,T09,r2,2021-04-25_15h05.25.549,subsecond_timing_v2,2021.1.2,MacIntel,60.0024001
space,0.852165,space,1.534915,,,ms_large,0,105,105,105,1,0.847,0.3,False,None,T09,r2,2021-04-25_15h05.25.549,subsecond_timing_v2,2021.1.2,MacIntel,60.0024001
space,0.867245,space,1.43483,,,ms_large,0,106,106,106,1,1.094,0.3,False,None,T09,r2,2021-04-25_15h05.25.549,subsecond_timing_v2,2021.1.2,MacIntel,60.0024001
space,0.85075,space,1.120385,,,ms_large,0,107,107,107,1,1.129,0.3,False,None,T09,r2,2021-04-25_15h05.25.549,subsecond_timing_v2,2021.1.2,MacIntel,60.0024001
space,0.80082,space,1.31701,,,ms_large,0,108,108,108,1,0.882,0.3,False,None,T09,r2,2021-04-25_15h05.25.549,subsecond_timing_v2,2021.1.2,MacIntel,60.0024001
space,0.803955,space,1.23443,,,ms_large,0,109,109,109,1,0.953,0.2,False,None,T09,r2,2021-04-25_15h05.25.549,subsecond_timing_v2,2021.1.2,MacIntel,60.0024001
space,0.950275,space,1.467585,,,ms_large,0,110,110,110,1,0.988,0.1,False,None,T09,r2,2021-04-25_15h05.25.549,subsecond_timing_v2,2021.1.2,MacIntel,60.0024001
space,0.7676,space,1.3342,,,ms_large,0,111,111,111,1,1.165,0.3,False,None,T09,r2,2021-04-25_15h05.25.549,subsecond_timing_v2,2021.1.2,MacIntel,60.0024001
space,0.86745,space,1.153625,,,ms_large,0,112,112,112,1,0.918,0.2,False,None,T09,r2,2021-04-25_15h05.25.549,subsecond_timing_v2,2021.1.2,MacIntel,60.0024001
space,1.269055,space,1.23419,,,ms_large,0,113,113,113,1,1.059,0.3,False,None,T09,r2,2021-04-25_15h05.25.549,subsecond_timing_v2,2021.1.2,MacIntel,60.0024001
space,1.16739,space,1.21806,,,ms_large,0,114,114,114,1,1.2,0.2,False,None,T09,r2,2021-04-25_15h05.25.549,subsecond_timing_v2,2021.1.2,MacIntel,60.0024001
space,0.90104,space,1.2508,,,ms_large,0,115,115,115,1,1.024,0.3,False,None,T09,r2,2021-04-25_15h05.25.549,subsecond_timing_v2,2021.1.2,MacIntel,60.0024001
space,0.93336,space,1.316515,,,ms_large,0,116,116,116,1,1.129,0.3,False,None,T09,r2,2021-04-25_15h05.25.549,subsecond_timing_v2,2021.1.2,MacIntel,60.0024001
space,1.201955,space,1.18585,,,ms_large,0,117,117,117,1,1.2,0.3,False,None,T09,r2,2021-04-25_15h05.25.549,subsecond_timing_v2,2021.1.2,MacIntel,60.0024001
space,0.96899,space,1.23686,,,ms_large,0,118,118,118,1,1.024,0.3,False,None,T09,r2,2021-04-25_15h05.25.549,subsecond_timing_v2,2021.1.2,MacIntel,60.0024001
space,0.884125,space,1.22061,,,ms_large,0,119,119,119,1,1.094,0.1,False,None,T09,r2,2021-04-25_15h05.25.549,subsecond_timing_v2,2021.1.2,MacIntel,60.0024001
space,0.95035,space,1.086095,,,ms_large,0,120,120,120,1,1.059,0.1,False,None,T09,r2,2021-04-25_15h05.25.549,subsecond_timing_v2,2021.1.2,MacIntel,60.0024001
space,1.03413,space,1.584245,,,ms_large,0,121,121,121,1,0.988,0.2,False,None,T09,r2,2021-04-25_15h05.25.549,subsecond_timing_v2,2021.1.2,MacIntel,60.0024001
space,0.952475,space,0.96755,,,ms_large,0,122,122,122,1,0.847,0.3,False,None,T09,r2,2021-04-25_15h05.25.549,subsecond_timing_v2,2021.1.2,MacIntel,60.0024001
space,0.81698,space,1.06787,,,ms_large,0,123,123,123,1,0.953,0.2,False,None,T09,r2,2021-04-25_15h05.25.549,subsecond_timing_v2,2021.1.2,MacIntel,60.0024001
space,0.86776,space,1.450275,,,ms_large,0,124,124,124,1,0.918,0.2,False,None,T09,r2,2021-04-25_15h05.25.549,subsecond_timing_v2,2021.1.2,MacIntel,60.0024001
space,0.934075,space,1.668225,,,ms_large,0,125,125,125,1,1.165,0.2,False,None,T09,r2,2021-04-25_15h05.25.549,subsecond_timing_v2,2021.1.2,MacIntel,60.0024001
space,0.850055,space,1.51701,,,ms_large,0,126,126,126,1,0.882,0.3,False,None,T09,r2,2021-04-25_15h05.25.549,subsecond_timing_v2,2021.1.2,MacIntel,60.0024001
space,1.10058,space,1.33453,,,ms_large,0,127,127,127,1,0.882,0.2,False,None,T09,r2,2021-04-25_15h05.25.549,subsecond_timing_v2,2021.1.2,MacIntel,60.0024001
space,0.96729,space,1.36751,,,ms_large,0,128,128,128,1,1.094,0.2,False,None,T09,r2,2021-04-25_15h05.25.549,subsecond_timing_v2,2021.1.2,MacIntel,60.0024001
space,0.78377,space,1.203795,,,ms_large,0,129,129,129,1,1.024,0.3,False,None,T09,r2,2021-04-25_15h05.25.549,subsecond_timing_v2,2021.1.2,MacIntel,60.0024001
space,0.951315,space,1.517465,,,ms_large,0,130,130,130,1,0.847,0.1,False,None,T09,r2,2021-04-25_15h05.25.549,subsecond_timing_v2,2021.1.2,MacIntel,60.0024001
space,0.96751,space,1.31774,,,ms_large,0,131,131,131,1,1.2,0.1,False,None,T09,r2,2021-04-25_15h05.25.549,subsecond_timing_v2,2021.1.2,MacIntel,60.0024001
space,1.03404,space,1.200975,,,ms_large,0,132,132,132,1,1.059,0.3,False,None,T09,r2,2021-04-25_15h05.25.549,subsecond_timing_v2,2021.1.2,MacIntel,60.0024001
space,0.61808,space,1.201085,,,ms_large,0,133,133,133,1,0.918,0.1,False,None,T09,r2,2021-04-25_15h05.25.549,subsecond_timing_v2,2021.1.2,MacIntel,60.0024001
space,0.786455,space,1.116895,,,ms_large,0,134,134,134,1,1.129,0.3,False,None,T09,r2,2021-04-25_15h05.25.549,subsecond_timing_v2,2021.1.2,MacIntel,60.0024001
space,0.717965,space,1.150745,,,ms_large,0,135,135,135,1,1.165,0.2,False,None,T09,r2,2021-04-25_15h05.25.549,subsecond_timing_v2,2021.1.2,MacIntel,60.0024001
space,0.933225,space,1.2173,,,ms_large,0,136,136,136,1,0.953,0.1,False,None,T09,r2,2021-04-25_15h05.25.549,subsecond_timing_v2,2021.1.2,MacIntel,60.0024001
space,0.852845,space,1.18437,,,ms_large,0,137,137,137,1,0.988,0.3,False,None,T09,r2,2021-04-25_15h05.25.549,subsecond_timing_v2,2021.1.2,MacIntel,60.0024001
space,0.951335,space,1.2339,,,ms_large,0,138,138,138,1,0.847,0.1,False,None,T09,r2,2021-04-25_15h05.25.549,subsecond_timing_v2,2021.1.2,MacIntel,60.0024001
space,0.850745,space,1.0844,,,ms_large,0,139,139,139,1,0.882,0.1,False,None,T09,r2,2021-04-25_15h05.25.549,subsecond_timing_v2,2021.1.2,MacIntel,60.0024001
space,0.85239,space,1.333915,,,ms_large,0,140,140,140,1,0.988,0.3,False,None,T09,r2,2021-04-25_15h05.25.549,subsecond_timing_v2,2021.1.2,MacIntel,60.0024001
space,0.867575,space,1.200365,,,ms_large,0,141,141,141,1,0.953,0.1,False,None,T09,r2,2021-04-25_15h05.25.549,subsecond_timing_v2,2021.1.2,MacIntel,60.0024001
space,0.80064,space,1.18409,,,ms_large,0,142,142,142,1,1.165,0.2,False,None,T09,r2,2021-04-25_15h05.25.549,subsecond_timing_v2,2021.1.2,MacIntel,60.0024001
space,0.967075,space,1.28636,,,ms_large,0,143,143,143,1,1.059,0.3,False,None,T09,r2,2021-04-25_15h05.25.549,subsecond_timing_v2,2021.1.2,MacIntel,60.0024001
space,0.684445,space,1.202785,,,ms_large,0,144,144,144,1,1.2,0.1,False,None,T09,r2,2021-04-25_15h05.25.549,subsecond_timing_v2,2021.1.2,MacIntel,60.0024001
space,0.65077,space,1.001345,,,ms_large,0,145,145,145,1,1.094,0.2,False,None,T09,r2,2021-04-25_15h05.25.549,subsecond_timing_v2,2021.1.2,MacIntel,60.0024001
space,0.451545,space,0.95102,,,ms_large,0,146,146,146,1,1.024,0.3,False,None,T09,r2,2021-04-25_15h05.25.549,subsecond_timing_v2,2021.1.2,MacIntel,60.0024001
space,0.66711,space,1.28391,,,ms_large,0,147,147,147,1,0.918,0.2,False,None,T09,r2,2021-04-25_15h05.25.549,subsecond_timing_v2,2021.1.2,MacIntel,60.0024001
space,0.701655,space,1.552135,,,ms_large,0,148,148,148,1,1.129,0.3,False,None,T09,r2,2021-04-25_15h05.25.549,subsecond_timing_v2,2021.1.2,MacIntel,60.0024001
space,0.68423,space,1.46837,,,ms_large,0,149,149,149,1,1.165,0.3,False,None,T09,r2,2021-04-25_15h05.25.549,subsecond_timing_v2,2021.1.2,MacIntel,60.0024001
space,0.82025,space,1.300615,,,ms_large,0,150,150,150,1,0.882,0.1,False,None,T09,r2,2021-04-25_15h05.25.549,subsecond_timing_v2,2021.1.2,MacIntel,60.0024001
space,1.10074,space,1.300525,,,ms_large,0,151,151,151,1,1.2,0.2,False,None,T09,r2,2021-04-25_15h05.25.549,subsecond_timing_v2,2021.1.2,MacIntel,60.0024001
space,0.93541,space,1.067795,,,ms_large,0,152,152,152,1,0.953,0.3,False,None,T09,r2,2021-04-25_15h05.25.549,subsecond_timing_v2,2021.1.2,MacIntel,60.0024001
space,0.934805,space,1.467965,,,ms_large,0,153,153,153,1,1.059,0.3,False,None,T09,r2,2021-04-25_15h05.25.549,subsecond_timing_v2,2021.1.2,MacIntel,60.0024001
space,1.12033,space,1.251935,,,ms_large,0,154,154,154,1,0.918,0.2,False,None,T09,r2,2021-04-25_15h05.25.549,subsecond_timing_v2,2021.1.2,MacIntel,60.0024001
space,0.834025,space,1.27055,,,ms_large,0,155,155,155,1,0.847,0.2,False,None,T09,r2,2021-04-25_15h05.25.549,subsecond_timing_v2,2021.1.2,MacIntel,60.0024001
space,0.902275,space,1.435865,,,ms_large,0,156,156,156,1,1.129,0.3,False,None,T09,r2,2021-04-25_15h05.25.549,subsecond_timing_v2,2021.1.2,MacIntel,60.0024001
space,0.81746,space,1.484755,,,ms_large,0,157,157,157,1,1.024,0.1,False,None,T09,r2,2021-04-25_15h05.25.549,subsecond_timing_v2,2021.1.2,MacIntel,60.0024001
space,0.852515,space,1.533945,,,ms_large,0,158,158,158,1,0.988,0.2,False,None,T09,r2,2021-04-25_15h05.25.549,subsecond_timing_v2,2021.1.2,MacIntel,60.0024001
space,0.81761,space,1.117485,,,ms_large,0,159,159,159,1,1.094,0.2,False,None,T09,r2,2021-04-25_15h05.25.549,subsecond_timing_v2,2021.1.2,MacIntel,60.0024001
space,0.95069,space,1.23337,,,ms_large,0,160,160,160,1,1.129,0.2,False,None,T09,r2,2021-04-25_15h05.25.549,subsecond_timing_v2,2021.1.2,MacIntel,60.0024001
space,0.783945,space,1.284245,,,ms_large,0,161,161,161,1,0.953,0.2,False,None,T09,r2,2021-04-25_15h05.25.549,subsecond_timing_v2,2021.1.2,MacIntel,60.0024001
space,0.867185,space,1.168755,,,ms_large,0,162,162,162,1,0.847,0.3,False,None,T09,r2,2021-04-25_15h05.25.549,subsecond_timing_v2,2021.1.2,MacIntel,60.0024001
space,0.867665,space,1.133895,,,ms_large,0,163,163,163,1,0.988,0.1,False,None,T09,r2,2021-04-25_15h05.25.549,subsecond_timing_v2,2021.1.2,MacIntel,60.0024001
space,0.67033,space,1.05134,,,ms_large,0,164,164,164,1,0.882,0.1,False,None,T09,r2,2021-04-25_15h05.25.549,subsecond_timing_v2,2021.1.2,MacIntel,60.0024001
space,0.834425,space,1.0182,,,ms_large,0,165,165,165,1,1.094,0.1,False,None,T09,r2,2021-04-25_15h05.25.549,subsecond_timing_v2,2021.1.2,MacIntel,60.0024001
space,0.900755,space,1.13359,,,ms_large,0,166,166,166,1,0.918,0.2,False,None,T09,r2,2021-04-25_15h05.25.549,subsecond_timing_v2,2021.1.2,MacIntel,60.0024001
space,0.76708,space,1.75035,,,ms_large,0,167,167,167,1,1.024,0.3,False,None,T09,r2,2021-04-25_15h05.25.549,subsecond_timing_v2,2021.1.2,MacIntel,60.0024001
space,0.68341,space,1.100405,,,ms_large,0,168,168,168,1,1.059,0.1,False,None,T09,r2,2021-04-25_15h05.25.549,subsecond_timing_v2,2021.1.2,MacIntel,60.0024001
space,1.100265,space,1.26691,,,ms_large,0,169,169,169,1,1.2,0.3,False,None,T09,r2,2021-04-25_15h05.25.549,subsecond_timing_v2,2021.1.2,MacIntel,60.0024001
space,1.28376,space,1.25076,,,ms_large,0,170,170,170,1,1.165,0.3,False,None,T09,r2,2021-04-25_15h05.25.549,subsecond_timing_v2,2021.1.2,MacIntel,60.0024001
space,0.90154,space,1.45,,,ms_large,0,171,171,171,1,1.094,0.1,False,None,T09,r2,2021-04-25_15h05.25.549,subsecond_timing_v2,2021.1.2,MacIntel,60.0024001
space,0.983515,space,1.13369,,,ms_large,0,172,172,172,1,1.024,0.1,False,None,T09,r2,2021-04-25_15h05.25.549,subsecond_timing_v2,2021.1.2,MacIntel,60.0024001
space,0.884245,space,1.13429,,,ms_large,0,173,173,173,1,0.988,0.2,False,None,T09,r2,2021-04-25_15h05.25.549,subsecond_timing_v2,2021.1.2,MacIntel,60.0024001
space,0.950595,space,1.03401,,,ms_large,0,174,174,174,1,1.165,0.3,False,None,T09,r2,2021-04-25_15h05.25.549,subsecond_timing_v2,2021.1.2,MacIntel,60.0024001
space,0.70113,space,1.151015,,,ms_large,0,175,175,175,1,0.847,0.1,False,None,T09,r2,2021-04-25_15h05.25.549,subsecond_timing_v2,2021.1.2,MacIntel,60.0024001
space,0.81735,space,1.16767,,,ms_large,0,176,176,176,1,1.2,0.1,False,None,T09,r2,2021-04-25_15h05.25.549,subsecond_timing_v2,2021.1.2,MacIntel,60.0024001
space,1.06669,space,1.217005,,,ms_large,0,177,177,177,1,0.882,0.1,False,None,T09,r2,2021-04-25_15h05.25.549,subsecond_timing_v2,2021.1.2,MacIntel,60.0024001
space,0.86717,space,0.983685,,,ms_large,0,178,178,178,1,1.129,0.1,False,None,T09,r2,2021-04-25_15h05.25.549,subsecond_timing_v2,2021.1.2,MacIntel,60.0024001
space,0.9008,space,1.151945,,,ms_large,0,179,179,179,1,0.953,0.1,False,None,T09,r2,2021-04-25_15h05.25.549,subsecond_timing_v2,2021.1.2,MacIntel,60.0024001
space,0.751025,space,1.304125,,,ms_large,0,180,180,180,1,0.918,0.3,False,None,T09,r2,2021-04-25_15h05.25.549,subsecond_timing_v2,2021.1.2,MacIntel,60.0024001
space,0.901345,space,1.117945,,,ms_large,0,181,181,181,1,1.059,0.2,False,None,T09,r2,2021-04-25_15h05.25.549,subsecond_timing_v2,2021.1.2,MacIntel,60.0024001
space,1.034515,space,0.950455,,,ms_large,0,182,182,182,1,1.165,0.1,False,None,T09,r2,2021-04-25_15h05.25.549,subsecond_timing_v2,2021.1.2,MacIntel,60.0024001
space,1.100155,space,1.2344,,,ms_large,0,183,183,183,1,1.024,0.3,False,None,T09,r2,2021-04-25_15h05.25.549,subsecond_timing_v2,2021.1.2,MacIntel,60.0024001
space,0.85065,space,1.234615,,,ms_large,0,184,184,184,1,1.2,0.2,False,None,T09,r2,2021-04-25_15h05.25.549,subsecond_timing_v2,2021.1.2,MacIntel,60.0024001
space,1.133985,space,1.016955,,,ms_large,0,185,185,185,1,0.882,0.3,False,None,T09,r2,2021-04-25_15h05.25.549,subsecond_timing_v2,2021.1.2,MacIntel,60.0024001
space,1.034035,space,1.15086,,,ms_large,0,186,186,186,1,1.129,0.3,False,None,T09,r2,2021-04-25_15h05.25.549,subsecond_timing_v2,2021.1.2,MacIntel,60.0024001
space,1.01837,space,1.117275,,,ms_large,0,187,187,187,1,0.953,0.1,False,None,T09,r2,2021-04-25_15h05.25.549,subsecond_timing_v2,2021.1.2,MacIntel,60.0024001
space,1.31751,space,1.084855,,,ms_large,0,188,188,188,1,0.988,0.1,False,None,T09,r2,2021-04-25_15h05.25.549,subsecond_timing_v2,2021.1.2,MacIntel,60.0024001
space,1.30073,space,0.983415,,,ms_large,0,189,189,189,1,0.918,0.3,False,None,T09,r2,2021-04-25_15h05.25.549,subsecond_timing_v2,2021.1.2,MacIntel,60.0024001
space,0.98396,space,1.167445,,,ms_large,0,190,190,190,1,1.059,0.2,False,None,T09,r2,2021-04-25_15h05.25.549,subsecond_timing_v2,2021.1.2,MacIntel,60.0024001
space,1.03402,space,1.067335,,,ms_large,0,191,191,191,1,0.847,0.3,False,None,T09,r2,2021-04-25_15h05.25.549,subsecond_timing_v2,2021.1.2,MacIntel,60.0024001
space,0.83563,space,1.100935,,,ms_large,0,192,192,192,1,1.094,0.3,False,None,T09,r2,2021-04-25_15h05.25.549,subsecond_timing_v2,2021.1.2,MacIntel,60.0024001
space,0.983865,space,0.986295,,,ms_large,0,193,193,193,1,0.847,0.1,False,None,T09,r2,2021-04-25_15h05.25.549,subsecond_timing_v2,2021.1.2,MacIntel,60.0024001
space,0.750375,space,1.033435,,,ms_large,0,194,194,194,1,1.2,0.2,False,None,T09,r2,2021-04-25_15h05.25.549,subsecond_timing_v2,2021.1.2,MacIntel,60.0024001
space,1.00065,space,1.100005,,,ms_large,0,195,195,195,1,0.918,0.3,False,None,T09,r2,2021-04-25_15h05.25.549,subsecond_timing_v2,2021.1.2,MacIntel,60.0024001
space,0.92081,space,1.08422,,,ms_large,0,196,196,196,1,1.024,0.2,False,None,T09,r2,2021-04-25_15h05.25.549,subsecond_timing_v2,2021.1.2,MacIntel,60.0024001
space,0.90052,space,1.234365,,,ms_large,0,197,197,197,1,1.094,0.1,False,None,T09,r2,2021-04-25_15h05.25.549,subsecond_timing_v2,2021.1.2,MacIntel,60.0024001
space,1.049955,space,1.08377,,,ms_large,0,198,198,198,1,0.953,0.1,False,None,T09,r2,2021-04-25_15h05.25.549,subsecond_timing_v2,2021.1.2,MacIntel,60.0024001
space,0.886805,space,1.18554,,,ms_large,0,199,199,199,1,1.129,0.3,False,None,T09,r2,2021-04-25_15h05.25.549,subsecond_timing_v2,2021.1.2,MacIntel,60.0024001
space,0.751265,space,1.18411,,,ms_large,0,200,200,200,1,0.988,0.1,False,None,T09,r2,2021-04-25_15h05.25.549,subsecond_timing_v2,2021.1.2,MacIntel,60.0024001
space,1.16621,space,1.28383,,,ms_large,0,201,201,201,1,0.882,0.3,False,None,T09,r2,2021-04-25_15h05.25.549,subsecond_timing_v2,2021.1.2,MacIntel,60.0024001
space,1.017325,space,1.10208,,,ms_large,0,202,202,202,1,1.059,0.3,False,None,T09,r2,2021-04-25_15h05.25.549,subsecond_timing_v2,2021.1.2,MacIntel,60.0024001
space,0.95038,space,1.03397,,,ms_large,0,203,203,203,1,1.165,0.2,False,None,T09,r2,2021-04-25_15h05.25.549,subsecond_timing_v2,2021.1.2,MacIntel,60.0024001
space,1.01706,space,1.117095,,,ms_large,0,204,204,204,1,0.953,0.2,False,None,T09,r2,2021-04-25_15h05.25.549,subsecond_timing_v2,2021.1.2,MacIntel,60.0024001
space,0.834025,space,1.03401,,,ms_large,0,205,205,205,1,1.094,0.3,False,None,T09,r2,2021-04-25_15h05.25.549,subsecond_timing_v2,2021.1.2,MacIntel,60.0024001
space,1.05076,space,1.084075,,,ms_large,0,206,206,206,1,1.2,0.2,False,None,T09,r2,2021-04-25_15h05.25.549,subsecond_timing_v2,2021.1.2,MacIntel,60.0024001
space,1.25064,space,1.03471,,,ms_large,0,207,207,207,1,1.024,0.1,False,None,T09,r2,2021-04-25_15h05.25.549,subsecond_timing_v2,2021.1.2,MacIntel,60.0024001
space,0.96728,space,1.183965,,,ms_large,0,208,208,208,1,0.847,0.3,False,None,T09,r2,2021-04-25_15h05.25.549,subsecond_timing_v2,2021.1.2,MacIntel,60.0024001
space,0.81717,space,1.18403,,,ms_large,0,209,209,209,1,1.129,0.2,False,None,T09,r2,2021-04-25_15h05.25.549,subsecond_timing_v2,2021.1.2,MacIntel,60.0024001
space,1.13401,space,1.28422,,,ms_large,0,210,210,210,1,1.165,0.3,False,None,T09,r2,2021-04-25_15h05.25.549,subsecond_timing_v2,2021.1.2,MacIntel,60.0024001
space,0.733985,space,1.301315,,,ms_large,0,211,211,211,1,0.988,0.3,False,None,T09,r2,2021-04-25_15h05.25.549,subsecond_timing_v2,2021.1.2,MacIntel,60.0024001
space,0.970995,space,1.18665,,,ms_large,0,212,212,212,1,0.882,0.3,False,None,T09,r2,2021-04-25_15h05.25.549,subsecond_timing_v2,2021.1.2,MacIntel,60.0024001
space,1.134315,space,1.217355,,,ms_large,0,213,213,213,1,1.059,0.2,False,None,T09,r2,2021-04-25_15h05.25.549,subsecond_timing_v2,2021.1.2,MacIntel,60.0024001
space,1.100525,space,1.200235,,,ms_large,0,214,214,214,1,0.918,0.3,False,None,T09,r2,2021-04-25_15h05.25.549,subsecond_timing_v2,2021.1.2,MacIntel,60.0024001
space,1.1504,space,1.08475,,,ms_large,0,215,215,215,1,0.953,0.2,False,None,T09,r2,2021-04-25_15h05.25.549,subsecond_timing_v2,2021.1.2,MacIntel,60.0024001
space,1.183625,space,1.083875,,,ms_large,0,216,216,216,1,0.847,0.3,False,None,T09,r2,2021-04-25_15h05.25.549,subsecond_timing_v2,2021.1.2,MacIntel,60.0024001
space,1.25128,space,1.119575,,,ms_large,0,217,217,217,1,1.024,0.1,False,None,T09,r2,2021-04-25_15h05.25.549,subsecond_timing_v2,2021.1.2,MacIntel,60.0024001
space,1.601875,space,1.100985,,,ms_large,0,218,218,218,1,1.059,0.3,False,None,T09,r2,2021-04-25_15h05.25.549,subsecond_timing_v2,2021.1.2,MacIntel,60.0024001
space,1.200715,space,1.184265,,,ms_large,0,219,219,219,1,0.988,0.1,False,None,T09,r2,2021-04-25_15h05.25.549,subsecond_timing_v2,2021.1.2,MacIntel,60.0024001
space,1.11725,space,1.05065,,,ms_large,0,220,220,220,1,1.094,0.1,False,None,T09,r2,2021-04-25_15h05.25.549,subsecond_timing_v2,2021.1.2,MacIntel,60.0024001
space,0.90358,space,1.25102,,,ms_large,0,221,221,221,1,0.918,0.3,False,None,T09,r2,2021-04-25_15h05.25.549,subsecond_timing_v2,2021.1.2,MacIntel,60.0024001
space,0.917225,space,1.035485,,,ms_large,0,222,222,222,1,0.882,0.1,False,None,T09,r2,2021-04-25_15h05.25.549,subsecond_timing_v2,2021.1.2,MacIntel,60.0024001
space,0.86933,space,0.969715,,,ms_large,0,223,223,223,1,1.129,0.2,False,None,T09,r2,2021-04-25_15h05.25.549,subsecond_timing_v2,2021.1.2,MacIntel,60.0024001
space,0.983775,space,1.08499,,,ms_large,0,224,224,224,1,1.165,0.3,False,None,T09,r2,2021-04-25_15h05.25.549,subsecond_timing_v2,2021.1.2,MacIntel,60.0024001
space,0.85056,space,1.00143,,,ms_large,0,225,225,225,1,1.2,0.3,False,None,T09,r2,2021-04-25_15h05.25.549,subsecond_timing_v2,2021.1.2,MacIntel,60.0024001
