key_resp_start.keys,key_resp_start.rt,key_resp_stop.keys,key_resp_stop.rt,feedback_range,hit,stimulus_range,trials.thisRepN,trials.thisTrialN,trials.thisN,trials.thisIndex,trials.ran,stimulus_duration,onset,feedback,feedback_range_fromfile,participant,session,date,expName,psychopyVersion,OS,frameRate
space,0.03892,space,0.267285,0.3,FALSE,Training,0,0,0,0,1,2,0.1,True,0.3,T12,r3,2021-04-25_12h55.07.815,subsecond_timing_v2,2021.1.2,Win32,60.08893162
space,5.79787,space,0.30096,0.3,FALSE,Training,0,1,1,1,1,5,0.2,True,0.3,T12,r3,2021-04-25_12h55.07.815,subsecond_timing_v2,2021.1.2,Win32,60.08893162
space,1.95179,space,0.769965,0.3,FALSE,Training,0,2,2,2,1,4,0.1,True,0.3,T12,r3,2021-04-25_12h55.07.815,subsecond_timing_v2,2021.1.2,Win32,60.08893162
space,1.35652,space,1.22013,,,large,0,3,3,3,1,4.5,0.3,False,None,T12,r3,2021-04-25_12h55.07.815,subsecond_timing_v2,2021.1.2,Win32,60.08893162
space,2.65689,space,0.775665,,,large,0,4,4,4,1,3.5,0.3,False,None,T12,r3,2021-04-25_12h55.07.815,subsecond_timing_v2,2021.1.2,Win32,60.08893162
space,2.1461,space,2.681395,,,large,0,5,5,5,1,5.5,0.3,False,None,T12,r3,2021-04-25_12h55.07.815,subsecond_timing_v2,2021.1.2,Win32,60.08893162
space,1.522625,space,1.991445,,,large,0,6,6,6,1,3,0.1,False,None,T12,r3,2021-04-25_12h55.07.815,subsecond_timing_v2,2021.1.2,Win32,60.08893162
space,2.361145,space,1.774455,,,large,0,7,7,7,1,2.5,0.1,False,None,T12,r3,2021-04-25_12h55.07.815,subsecond_timing_v2,2021.1.2,Win32,60.08893162
space,2.883145,space,0.969955,,,large,0,8,8,8,1,5,0.3,False,None,T12,r3,2021-04-25_12h55.07.815,subsecond_timing_v2,2021.1.2,Win32,60.08893162
space,3.7856,space,0.73813,,,large,0,9,9,9,1,6,0.3,False,None,T12,r3,2021-04-25_12h55.07.815,subsecond_timing_v2,2021.1.2,Win32,60.08893162
space,1.800495,space,2.21748,,,large,0,10,10,10,1,2,0.2,False,None,T12,r3,2021-04-25_12h55.07.815,subsecond_timing_v2,2021.1.2,Win32,60.08893162
space,1.953995,space,2.091355,,,large,0,11,11,11,1,4,0.1,False,None,T12,r3,2021-04-25_12h55.07.815,subsecond_timing_v2,2021.1.2,Win32,60.08893162
space,1.717085,space,0.77081,,,large,0,12,12,12,1,2.5,0.3,False,None,T12,r3,2021-04-25_12h55.07.815,subsecond_timing_v2,2021.1.2,Win32,60.08893162
space,2.33778,space,1.370225,,,large,0,13,13,13,1,4,0.1,False,None,T12,r3,2021-04-25_12h55.07.815,subsecond_timing_v2,2021.1.2,Win32,60.08893162
space,4.497585,space,2.33141,,,large,0,14,14,14,1,3.5,0.3,False,None,T12,r3,2021-04-25_12h55.07.815,subsecond_timing_v2,2021.1.2,Win32,60.08893162
space,1.148665,space,2.899525,,,large,0,15,15,15,1,5.5,0.1,False,None,T12,r3,2021-04-25_12h55.07.815,subsecond_timing_v2,2021.1.2,Win32,60.08893162
space,2.01116,space,2.784235,,,large,0,16,16,16,1,6,0.1,False,None,T12,r3,2021-04-25_12h55.07.815,subsecond_timing_v2,2021.1.2,Win32,60.08893162
space,1.66701,space,1.448355,,,large,0,17,17,17,1,3,0.2,False,None,T12,r3,2021-04-25_12h55.07.815,subsecond_timing_v2,2021.1.2,Win32,60.08893162
space,1.93421,space,1.356075,,,large,0,18,18,18,1,2,0.2,False,None,T12,r3,2021-04-25_12h55.07.815,subsecond_timing_v2,2021.1.2,Win32,60.08893162
space,1.076845,space,3.09095,,,large,0,19,19,19,1,5,0.2,False,None,T12,r3,2021-04-25_12h55.07.815,subsecond_timing_v2,2021.1.2,Win32,60.08893162
space,1.30116,space,4.81512,,,large,0,20,20,20,1,4.5,0.3,False,None,T12,r3,2021-04-25_12h55.07.815,subsecond_timing_v2,2021.1.2,Win32,60.08893162
space,1.195685,space,2.206585,,,large,0,21,21,21,1,3.5,0.2,False,None,T12,r3,2021-04-25_12h55.07.815,subsecond_timing_v2,2021.1.2,Win32,60.08893162
space,1.241675,space,5.52941,,,large,0,22,22,22,1,3,0.2,False,None,T12,r3,2021-04-25_12h55.07.815,subsecond_timing_v2,2021.1.2,Win32,60.08893162
space,0.270125,space,0.951645,,,large,0,23,23,23,1,5.5,0.1,False,None,T12,r3,2021-04-25_12h55.07.815,subsecond_timing_v2,2021.1.2,Win32,60.08893162
space,3.75519,space,1.611955,,,large,0,24,24,24,1,2,0.1,False,None,T12,r3,2021-04-25_12h55.07.815,subsecond_timing_v2,2021.1.2,Win32,60.08893162
space,1.231425,space,5.42938,,,large,0,25,25,25,1,6,0.3,False,None,T12,r3,2021-04-25_12h55.07.815,subsecond_timing_v2,2021.1.2,Win32,60.08893162
space,11.846835,space,1.014705,,,large,0,26,26,26,1,2.5,0.1,False,None,T12,r3,2021-04-25_12h55.07.815,subsecond_timing_v2,2021.1.2,Win32,60.08893162
space,1.15077,space,1.76643,,,large,0,27,27,27,1,4,0.2,False,None,T12,r3,2021-04-25_12h55.07.815,subsecond_timing_v2,2021.1.2,Win32,60.08893162
space,0.908885,space,1.0392,,,large,0,28,28,28,1,4.5,0.3,False,None,T12,r3,2021-04-25_12h55.07.815,subsecond_timing_v2,2021.1.2,Win32,60.08893162
space,1.487385,space,3.193705,,,large,0,29,29,29,1,5,0.1,False,None,T12,r3,2021-04-25_12h55.07.815,subsecond_timing_v2,2021.1.2,Win32,60.08893162
space,1.125315,space,1.14866,,,large,0,30,30,30,1,2.5,0.3,False,None,T12,r3,2021-04-25_12h55.07.815,subsecond_timing_v2,2021.1.2,Win32,60.08893162
space,0.848915,space,1.56592,,,large,0,31,31,31,1,6,0.1,False,None,T12,r3,2021-04-25_12h55.07.815,subsecond_timing_v2,2021.1.2,Win32,60.08893162
space,4.247335,space,2.465845,,,large,0,32,32,32,1,5,0.3,False,None,T12,r3,2021-04-25_12h55.07.815,subsecond_timing_v2,2021.1.2,Win32,60.08893162
space,1.760485,space,1.330885,,,large,0,33,33,33,1,3.5,0.1,False,None,T12,r3,2021-04-25_12h55.07.815,subsecond_timing_v2,2021.1.2,Win32,60.08893162
space,0.88221,space,0.930115,,,large,0,34,34,34,1,3,0.1,False,None,T12,r3,2021-04-25_12h55.07.815,subsecond_timing_v2,2021.1.2,Win32,60.08893162
space,0.902875,space,2.86762,,,large,0,35,35,35,1,5.5,0.2,False,None,T12,r3,2021-04-25_12h55.07.815,subsecond_timing_v2,2021.1.2,Win32,60.08893162
space,1.184885,space,1.50403,,,large,0,36,36,36,1,2,0.2,False,None,T12,r3,2021-04-25_12h55.07.815,subsecond_timing_v2,2021.1.2,Win32,60.08893162
space,1.63403,space,2.20063,,,large,0,37,37,37,1,4,0.2,False,None,T12,r3,2021-04-25_12h55.07.815,subsecond_timing_v2,2021.1.2,Win32,60.08893162
space,4.49894,space,1.915625,,,large,0,38,38,38,1,4.5,0.2,False,None,T12,r3,2021-04-25_12h55.07.815,subsecond_timing_v2,2021.1.2,Win32,60.08893162
space,0.94849,space,1.756315,,,large,0,39,39,39,1,4,0.3,False,None,T12,r3,2021-04-25_12h55.07.815,subsecond_timing_v2,2021.1.2,Win32,60.08893162
space,1.26608,space,1.85778,,,large,0,40,40,40,1,3,0.3,False,None,T12,r3,2021-04-25_12h55.07.815,subsecond_timing_v2,2021.1.2,Win32,60.08893162
space,0.859225,space,2.452355,,,large,0,41,41,41,1,4.5,0.1,False,None,T12,r3,2021-04-25_12h55.07.815,subsecond_timing_v2,2021.1.2,Win32,60.08893162
space,0.80561,space,2.95306,,,large,0,42,42,42,1,5,0.2,False,None,T12,r3,2021-04-25_12h55.07.815,subsecond_timing_v2,2021.1.2,Win32,60.08893162
space,0.855705,space,1.269225,,,large,0,43,43,43,1,2,0.2,False,None,T12,r3,2021-04-25_12h55.07.815,subsecond_timing_v2,2021.1.2,Win32,60.08893162
space,0.677465,space,2.026285,,,large,0,44,44,44,1,6,0.1,False,None,T12,r3,2021-04-25_12h55.07.815,subsecond_timing_v2,2021.1.2,Win32,60.08893162
space,0.64708,space,0.910205,,,large,0,45,45,45,1,5.5,0.3,False,None,T12,r3,2021-04-25_12h55.07.815,subsecond_timing_v2,2021.1.2,Win32,60.08893162
space,0.933145,space,0.609855,,,large,0,46,46,46,1,2.5,0.1,False,None,T12,r3,2021-04-25_12h55.07.815,subsecond_timing_v2,2021.1.2,Win32,60.08893162
space,1.226575,space,1.90561,,,large,0,47,47,47,1,3.5,0.2,False,None,T12,r3,2021-04-25_12h55.07.815,subsecond_timing_v2,2021.1.2,Win32,60.08893162
space,1.37784,space,1.90028,,,large,0,48,48,48,1,4,0.1,False,None,T12,r3,2021-04-25_12h55.07.815,subsecond_timing_v2,2021.1.2,Win32,60.08893162
space,4.220405,space,0.93267,,,large,0,49,49,49,1,6,0.3,False,None,T12,r3,2021-04-25_12h55.07.815,subsecond_timing_v2,2021.1.2,Win32,60.08893162
space,16.542285,space,0.52236,,,large,0,50,50,50,1,2,0.3,False,None,T12,r3,2021-04-25_12h55.07.815,subsecond_timing_v2,2021.1.2,Win32,60.08893162
space,0.90509,space,1.94956,,,large,0,51,51,51,1,4.5,0.1,False,None,T12,r3,2021-04-25_12h55.07.815,subsecond_timing_v2,2021.1.2,Win32,60.08893162
space,21.933275,space,0.35538,,,large,0,52,52,52,1,5.5,0.3,False,None,T12,r3,2021-04-25_12h55.07.815,subsecond_timing_v2,2021.1.2,Win32,60.08893162
space,2.598685,space,6.548185,,,large,0,53,53,53,1,2.5,0.2,False,None,T12,r3,2021-04-25_12h55.07.815,subsecond_timing_v2,2021.1.2,Win32,60.08893162
space,1.328075,space,2.13283,,,large,0,54,54,54,1,3.5,0.2,False,None,T12,r3,2021-04-25_12h55.07.815,subsecond_timing_v2,2021.1.2,Win32,60.08893162
space,1.49058,space,1.544115,,,large,0,55,55,55,1,3,0.3,False,None,T12,r3,2021-04-25_12h55.07.815,subsecond_timing_v2,2021.1.2,Win32,60.08893162
space,1.35548,space,3.172135,,,large,0,56,56,56,1,5,0.3,False,None,T12,r3,2021-04-25_12h55.07.815,subsecond_timing_v2,2021.1.2,Win32,60.08893162
space,1.681145,space,1.191245,,,large,0,57,57,57,1,2,0.3,False,None,T12,r3,2021-04-25_12h55.07.815,subsecond_timing_v2,2021.1.2,Win32,60.08893162
space,1.25933,space,2.62526,,,large,0,58,58,58,1,4,0.2,False,None,T12,r3,2021-04-25_12h55.07.815,subsecond_timing_v2,2021.1.2,Win32,60.08893162
space,1.18559,space,4.12083,,,large,0,59,59,59,1,6,0.1,False,None,T12,r3,2021-04-25_12h55.07.815,subsecond_timing_v2,2021.1.2,Win32,60.08893162
space,1.17427,space,2.583545,,,large,0,60,60,60,1,5.5,0.2,False,None,T12,r3,2021-04-25_12h55.07.815,subsecond_timing_v2,2021.1.2,Win32,60.08893162
space,1.28568,space,2.38287,,,large,0,61,61,61,1,3.5,0.2,False,None,T12,r3,2021-04-25_12h55.07.815,subsecond_timing_v2,2021.1.2,Win32,60.08893162
space,1.032775,space,3.382355,,,large,0,62,62,62,1,5,0.2,False,None,T12,r3,2021-04-25_12h55.07.815,subsecond_timing_v2,2021.1.2,Win32,60.08893162
space,1.083835,space,0.81354,,,large,0,63,63,63,1,2.5,0.3,False,None,T12,r3,2021-04-25_12h55.07.815,subsecond_timing_v2,2021.1.2,Win32,60.08893162
space,1.112845,space,1.15195,,,large,0,64,64,64,1,3,0.1,False,None,T12,r3,2021-04-25_12h55.07.815,subsecond_timing_v2,2021.1.2,Win32,60.08893162
space,1.18666,space,3.130645,,,large,0,65,65,65,1,4.5,0.3,False,None,T12,r3,2021-04-25_12h55.07.815,subsecond_timing_v2,2021.1.2,Win32,60.08893162
space,0.949545,space,3.472,,,large,0,66,66,66,1,5.5,0.3,False,None,T12,r3,2021-04-25_12h55.07.815,subsecond_timing_v2,2021.1.2,Win32,60.08893162
space,0.950025,space,0.017975,,,large,0,67,67,67,1,5,0.3,False,None,T12,r3,2021-04-25_12h55.07.815,subsecond_timing_v2,2021.1.2,Win32,60.08893162
space,5.33811,space,1.091165,,,large,0,68,68,68,1,3,0.2,False,None,T12,r3,2021-04-25_12h55.07.815,subsecond_timing_v2,2021.1.2,Win32,60.08893162
space,1.554925,space,3.67487,,,large,0,69,69,69,1,2.5,0.3,False,None,T12,r3,2021-04-25_12h55.07.815,subsecond_timing_v2,2021.1.2,Win32,60.08893162
space,1.17339,space,5.18304,,,large,0,70,70,70,1,6,0.1,False,None,T12,r3,2021-04-25_12h55.07.815,subsecond_timing_v2,2021.1.2,Win32,60.08893162
space,1.325185,space,5.245575,,,large,0,71,71,71,1,4,0.1,False,None,T12,r3,2021-04-25_12h55.07.815,subsecond_timing_v2,2021.1.2,Win32,60.08893162
space,72.3841,space,0.405845,,,large,0,72,72,72,1,2,0.1,False,None,T12,r3,2021-04-25_12h55.07.815,subsecond_timing_v2,2021.1.2,Win32,60.08893162
space,2.054935,space,61.89276,,,large,0,73,73,73,1,4.5,0.1,False,None,T12,r3,2021-04-25_12h55.07.815,subsecond_timing_v2,2021.1.2,Win32,60.08893162
space,4.730985,space,0.2338,,,large,0,74,74,74,1,3.5,0.3,False,None,T12,r3,2021-04-25_12h55.07.815,subsecond_timing_v2,2021.1.2,Win32,60.08893162
space,1.005655,space,2.5488,,,large,0,75,75,75,1,5.5,0.1,False,None,T12,r3,2021-04-25_12h55.07.815,subsecond_timing_v2,2021.1.2,Win32,60.08893162
space,1.517215,space,0.290805,,,large,0,76,76,76,1,6,0.2,False,None,T12,r3,2021-04-25_12h55.07.815,subsecond_timing_v2,2021.1.2,Win32,60.08893162
space,1.127785,space,0.32572,,,large,0,77,77,77,1,2.5,0.1,False,None,T12,r3,2021-04-25_12h55.07.815,subsecond_timing_v2,2021.1.2,Win32,60.08893162
space,0.707035,space,3.1305,,,large,0,78,78,78,1,5,0.1,False,None,T12,r3,2021-04-25_12h55.07.815,subsecond_timing_v2,2021.1.2,Win32,60.08893162
space,1.00623,space,4.032545,,,large,0,79,79,79,1,4,0.1,False,None,T12,r3,2021-04-25_12h55.07.815,subsecond_timing_v2,2021.1.2,Win32,60.08893162
space,1.017185,space,2.95467,,,large,0,80,80,80,1,3.5,0.1,False,None,T12,r3,2021-04-25_12h55.07.815,subsecond_timing_v2,2021.1.2,Win32,60.08893162
space,1.322575,space,3.43236,,,large,0,81,81,81,1,2,0.1,False,None,T12,r3,2021-04-25_12h55.07.815,subsecond_timing_v2,2021.1.2,Win32,60.08893162
space,22.547775,space,0.378395,,,large,0,82,82,82,1,4.5,0.1,False,None,T12,r3,2021-04-25_12h55.07.815,subsecond_timing_v2,2021.1.2,Win32,60.08893162
space,1.234625,space,5.80205,,,large,0,83,83,83,1,3,0.2,False,None,T12,r3,2021-04-25_12h55.07.815,subsecond_timing_v2,2021.1.2,Win32,60.08893162
space,2.720435,space,0.318755,,,large,0,84,84,84,1,2.5,0.2,False,None,T12,r3,2021-04-25_12h55.07.815,subsecond_timing_v2,2021.1.2,Win32,60.08893162
space,1.18167,space,0.51275,,,large,0,85,85,85,1,6,0.1,False,None,T12,r3,2021-04-25_12h55.07.815,subsecond_timing_v2,2021.1.2,Win32,60.08893162
space,0.799925,space,2.553185,,,large,0,86,86,86,1,5,0.3,False,None,T12,r3,2021-04-25_12h55.07.815,subsecond_timing_v2,2021.1.2,Win32,60.08893162
space,1.13146,space,2.227375,,,large,0,87,87,87,1,2,0.3,False,None,T12,r3,2021-04-25_12h55.07.815,subsecond_timing_v2,2021.1.2,Win32,60.08893162
space,9.87545,space,8.3599,,,large,0,88,88,88,1,4,0.3,False,None,T12,r3,2021-04-25_12h55.07.815,subsecond_timing_v2,2021.1.2,Win32,60.08893162
space,0.99435,space,2.178005,,,large,0,89,89,89,1,3.5,0.1,False,None,T12,r3,2021-04-25_12h55.07.815,subsecond_timing_v2,2021.1.2,Win32,60.08893162
space,0.65474,space,2.3327,,,large,0,90,90,90,1,4.5,0.1,False,None,T12,r3,2021-04-25_12h55.07.815,subsecond_timing_v2,2021.1.2,Win32,60.08893162
space,2.033205,space,3.624745,,,large,0,91,91,91,1,3,0.2,False,None,T12,r3,2021-04-25_12h55.07.815,subsecond_timing_v2,2021.1.2,Win32,60.08893162
space,0.868585,space,2.601765,,,large,0,92,92,92,1,5.5,0.3,False,None,T12,r3,2021-04-25_12h55.07.815,subsecond_timing_v2,2021.1.2,Win32,60.08893162
